<?xml version="1.0" encoding="UTF-8"?>

<Bundle xmlns="http://hl7.org/fhir">
  <id value="bundlepackageleaflet75"/>
  <meta>
    <profile value="http://hl7.org/fhir/uv/emedicinal-product-info/StructureDefinition/Bundle-uv-epi"/>
  </meta>
  <identifier>
    <system value="https://www.gravitatehealth.eu/sid/doc"/>
    <value value="EU/1/96/007/035"/>
  </identifier>
  <type value="document"/>
  <timestamp value="2018-06-23T08:38:00+02:00"/>
  <entry>
    <fullUrl value="urn:uuid:e63f72b2-993f-48b1-b7cb-539b1ed71571"/>
    <resource>
      <Composition>
        <id value="e63f72b2-993f-48b1-b7cb-539b1ed71571"/>
        <meta>
          <profile value="http://hl7.org/fhir/uv/emedicinal-product-info/StructureDefinition/Composition-uv-epi"/>
        </meta>
        <text>
          <status value="generated"/><div xmlns="http://www.w3.org/1999/xhtml"><p><b>Generated Narrative: Composition</b><a name="e63f72b2-993f-48b1-b7cb-539b1ed71571"> </a></p><div style="display: inline-block; background-color: #d9e0e7; padding: 6px; margin: 4px; border: 1px solid #8da1b4; border-radius: 5px; line-height: 60%"><p style="margin-bottom: 0px">Resource Composition &quot;e63f72b2-993f-48b1-b7cb-539b1ed71571&quot; </p><p style="margin-bottom: 0px">Profile: <a href="StructureDefinition-Composition-uv-epi.html">Composition (ePI)</a></p></div><p><b>identifier</b>: id: 0d69fdcb-33cf-407f-8209-a6529856ab4f</p><p><b>status</b>: final</p><p><b>type</b>: Package Leaflet <span style="background: LightGoldenRodYellow; margin: 4px; border: 1px solid khaki"> (rmswi#100000155538)</span></p><p><b>date</b>: 2022-02-16 13:28:17+0000</p><p><b>author</b>: <a href="#Organization_d71bf884-90eb-47f9-81b7-fa81ecec7e75">See above (Organization/d71bf884-90eb-47f9-81b7-fa81ecec7e75)</a></p><p><b>title</b>: TEST PURPOSES ONLY - cava (irbesartan) 75 mg tablets</p></div>
        </text>
        <identifier>
          <system value="https://spor.ema.europa.eu/rmswi"/>
          <value value="0d69fdcb-33cf-407f-8209-a6529856ab4f"/>
        </identifier>
        <status value="final"/>
        <type>
          <coding>
            <system value="https://spor.ema.europa.eu/rmswi"/>
            <code value="100000155538"/>
          </coding>
          <text value="Package Leaflet"/>
        </type>
        <subject>
          <reference value="MedicinalProductDefinition/800a51a2-d81d-49a4-a4eb-f2417d301837"/>
        </subject>
        <date value="2022-02-16T13:28:17Z"/>
        <author>
          <reference value="Organization/d71bf884-90eb-47f9-81b7-fa81ecec7e75"/>
        </author>
        <title value="TEST PURPOSES ONLY - cava (irbesartan) 75 mg tablets"/>
        <section>
          <title value="B. Package Leaflet"/>
          <code>
            <coding>
              <system value="https://spor.ema.europa.eu/rmswi"/>
              <code value="100000155538"/>
            </coding>
            <text value="B. PACKAGE LEAFLET"/>
          </code>
          <text>
            <status value="additional"/><div xmlns="http://www.w3.org/1999/xhtml">unavailable</div>
          </text>
          <emptyReason>
            <coding>
              <system value="http://terminology.hl7.org/CodeSystem/list-empty-reason"/>
              <code value="unavailable"/>
            </coding>
          </emptyReason>
        </section>
        <section>
          <title value="B. Package Leaflet"/>
          <code>
            <coding>
              <system value="https://spor.ema.europa.eu/rmswi"/>
              <code value="100000155538"/>
            </coding>
            <text value="B. PACKAGE LEAFLET"/>
          </code>
          <text>
            <status value="additional"/><div xmlns="http://www.w3.org/1999/xhtml">unavailable</div>
          </text>
          <emptyReason>
            <coding>
              <system value="http://terminology.hl7.org/CodeSystem/list-empty-reason"/>
              <code value="unavailable"/>
            </coding>
          </emptyReason>
          <section>
            <title value="Package leaflet: Information for the user"/>
            <code>
              <coding>
                <system value="https://spor.ema.europa.eu/rmswi"/>
                <code value="100000155538"/>
              </coding>
              <text value="Package leaflet: Information for the user"/>
            </code>
            <text>
              <status value="additional"/><div xmlns="http://www.w3.org/1999/xhtml"><p>cava 75 mg tablets</p><p>irbesartan</p><b>Read all of this leaflet carefully before you start taking this medicine because it contains important information for you.</b><ul><li>Keep this leaflet. You may need to read it again.</li><li>If you have any further questions, ask your doctor or pharmacist.</li><li>This medicine has been prescribed for you only. Do not pass it on to others. It may harm them, even if their signs of illness are the same as yours.</li><li>If you get any side effects, talk to your doctor or pharmacist. This includes any possible side effects not listed in this leaflet. See section 4.</li></ul></div>
            </text>
          </section>
          <section>
            <title value="What is in this leaflet"/>
            <code>
              <coding>
                <system value="https://spor.ema.europa.eu/rmswi"/>
                <code value="100000155538"/>
              </coding>
              <text value="What is in this leaflet"/>
            </code>
            <text>
              <status value="additional"/><div xmlns="http://www.w3.org/1999/xhtml"><ul><li>What cava is and what it is used for</li><li>What you need to know before you take cava</li><li>How to take cava</li><li>Possible side effects</li><li>How to store cava</li><li>Contents of the pack and other information</li></ul></div>
            </text>
          </section>
          <section>
            <title value="1. What cava is and what it is used for"/>
            <code>
              <coding>
                <system value="https://spor.ema.europa.eu/rmswi"/>
                <code value="100000155538"/>
              </coding>
              <text value="1. What cava is and what it is used for"/>
            </code>
            <text>
              <status value="additional"/><div xmlns="http://www.w3.org/1999/xhtml"><p>cava belongs to a group of medicines known as angiotensin-II receptor antagonists. Angiotensin-II is a substance produced in the body which binds to receptors in blood vessels causing them to tighten. This results in an increase in blood pressure. cava prevents the binding of angiotensin-II to these receptors, causing the blood vessels to relax and the blood pressure to lower. cava slows the decrease of kidney function in patients with high blood pressure and type 2 diabetes.</p><p>cava is used in adult patients</p><ul><li>to treat high blood pressure (essential hypertension)</li><li>to protect the kidney in patients with high blood pressure, type 2 diabetes and laboratory evidence of impaired kidney function.</li></ul></div>
            </text>
          </section>
          <section>
            <title value="2. What you need to know before you take cava"/>
            <code>
              <coding>
                <system value="https://spor.ema.europa.eu/rmswi"/>
                <code value="100000155538"/>
              </coding>
              <text value="2. What you need to know before you take cava"/>
            </code>
            <text>
              <status value="additional"/><div xmlns="http://www.w3.org/1999/xhtml"><b>Do not take cava</b><ul><li>if you are allergic to irbesartan or any other ingredients of this medicine (listed in section 6)</li><li>if you are more than 3 months pregnant. (It is also better to avoid cava in early pregnancy – see pregnancy section)</li><li><b>if you have diabetes or impaired kidney function</b> and you are treated with a blood pressure lowering medicine containing aliskiren.</li></ul><b>Warning and precautions</b><p>Talk to your doctor before taking cava and <b>if any of the following apply to you:</b></p><ul><li>if you get excessive vomiting or diarrhoea</li><li>if you suffer from kidney problems</li><li>if you suffer from heart problems</li><li>if you receive cava for diabetic kidney disease. In this case your doctor may perform regular blood tests, especially for measuring blood potassium levels in case of poor kidney function</li><li>if you develop low blood sugar levels (symptoms may include sweating, weakness, hunger, dizziness, trembling, headache, flushing or paleness, numbness, having a fast, pounding heart beat), particularly if you are being treated for diabetes.</li><li>if you are going to have an operation (surgery) or be given anaesthetics</li><li><ul><li>an ACE-inhibitor (for example enalapril, lisinopril, ramipril), in particular if you have diabetes-related kidney problems.</li><li>aliskiren</li></ul></li></ul><p>Your doctor may check your kidney function, blood pressure, and the amount of electrolytes (e.g. potassium) in your blood at regular intervals.</p><p>See also information under the heading “Do not take cava”.</p><p>You must tell your doctor if you think you are (or might become) pregnant. cava is not recommended in early pregnancy, and must not be taken if you are more than 3 months pregnant, as it may cause serious harm to your baby if used at that stage (see pregnancy section).</p><b>Children and adolescents</b><p>This medicinal product should not be used in children and adolescents because the safety and efficacy have not yet been fully established.</p><b>Other medicines and cava</b><p>Tell your doctor or pharmacist if you are taking, have recently taken or might take any other medicines.</p><p>Your doctor may need to change your dose and/or to take other precautions: If you are taking an ACE-inhibitor or aliskiren (see also information under the headings “Do not take cava” and “Warnings and precautions”).</p><b>You may need to have blood checks if you take:</b><ul><li>potassium supplements</li><li>salt substitutes containing potassium</li><li>potassium-sparing medicines (such as certain diuretics)</li><li>medicines containing lithium</li><li>repaglinide (medication used for lowering blood sugar levels)</li></ul><p>If you take certain painkillers, called non-steroidal anti-inflammatory drugs, the effect of irbesartan may be reduced.</p><b>cava with food and drink</b><p>cava can be taken with or without food.</p><b>Pregnancy and breast-feeding</b> <b>Pregnancy</b><p>You must tell your doctor if you think you are (or might become) pregnant. Your doctor will normally advise you to stop taking cava before you become pregnant or as soon as you know you are pregnant and will advise you to take another medicine instead of cava. cava is not recommended in early pregnancy, and must not be taken when more than 3 months pregnant, as it may cause serious harm to your baby if used after the third month of pregnancy.</p><b>Breast-feeding</b><p>Tell your doctor if you are breast-feeding or about to start breast-feeding. cava is not recommended for mothers who are breast-feeding, and your doctor may choose another treatment for you if you wish to breast-feed, especially if your baby is newborn, or was born prematurely.</p><b>Driving and using machines</b><p>cava is unlikely to affect your ability to drive or use machines. However, occasionally dizziness or weariness may occur during treatment of high blood pressure. If you experience these, talk to your doctor before attempting to drive or use machines.</p><b>cava contains lactose.</b><p>If you have been told by your doctor that you have an intolerance to some sugars (e.g. lactose), contact your doctor before taking this medicinal product.</p><b>cava contains sodium.</b><p>This medicine contains less than 1 mmol sodium (23 mg) per tablet, that is to say essentially ‘sodium-free’.</p></div>
            </text>
          </section>
          <section>
            <title value="3. How to take cava"/>
            <code>
              <coding>
                <system value="https://spor.ema.europa.eu/rmswi"/>
                <code value="100000155538"/>
              </coding>
              <text value="3. How to take cava"/>
            </code>
            <text>
              <status value="additional"/><div xmlns="http://www.w3.org/1999/xhtml"><b>Always take this medicine exactly as your doctor has told you. Check with your doctor or pharmacist if you are not sure.</b> <b>Method of administration</b><p>cava is for oral use. Swallow the tablets with a sufficient amount of fluid (e.g. one glass of water). You can take cava with or without food. Try to take your daily dose at about the same time each day. It is important that you continue to take cava until your doctor tells you otherwise.</p><ul><li><b>Patients with high blood pressure</b><p>The usual dose is 150 mg once a day (two tablets a day). The dose may later be increased to 300 mg (four tablets a day) once daily depending on blood pressure response.</p></li><li><b>Patients with high blood pressure and type 2 diabetes with kidney disease</b><p>In patients with high blood pressure and type 2 diabetes, 300 mg (four tablets a day) once daily is the preferred maintenance dose for the treatment of associated kidney disease.</p></li></ul><p>The doctor may advise a lower dose, especially when starting treatment in certain patients such as those on haemodialysis, or those over the age of 75 years.</p><p>The maximal blood pressure lowering effect should be reached 4-6 weeks after beginning treatment.</p><b>Use in children and adolescents</b><p>cava should not be given to children under 18 years of age. If a child swallows some tablets, contact your doctor immediately.</p><b>If you take more cava than you should</b><p>If you accidentally take too many tablets, contact your doctor immediately.</p><b>If you forget to take cava</b><p>If you accidentally miss a daily dose, just take the next dose as normal. Do not take a double dose to make up for a forgotten dose.</p><p>If you have any further questions on the use of this medicine, ask your doctor or pharmacist.</p></div>
            </text>
          </section>
          <section>
            <title value="4. Possible side effects"/>
            <code>
              <coding>
                <system value="https://spor.ema.europa.eu/rmswi"/>
                <code value="100000155538"/>
              </coding>
              <text value="4. Possible side effects"/>
            </code>
            <text>
              <status value="additional"/><div xmlns="http://www.w3.org/1999/xhtml"><p>Like all medicines, this medicine can cause side effects, although not everybody gets them. Some of these effects may be serious and may require medical attention.</p><p>As with similar medicines, rare cases of allergic skin reactions (rash, urticaria), as well as localised swelling of the face, lips and/or tongue have been reported in patients taking irbesartan. If you get any of these symptoms or get short of breath, stop taking cava and contact your doctor immediately.</p><p>The frequency of the side effects listed below is defined using the following convention:</p><p>Very common: may affect more than 1 in 10 people</p><p>Common: may affect up to 1 in 10 people</p><p>Uncommon: may affect up to 1 in 100 people</p><p>Side effects reported in clinical studies for patients treated with cava were:</p><ul><li>Very common (may affect more than 1 in 10 people): if you suffer from high blood pressure and type 2 diabetes with kidney disease, blood tests may show an increased level of potassium.</li><li>Common (may affect up to 1 10 people): dizziness, feeling sick/vomiting, fatigue and blood tests may show raised levels of an enzyme that measures the muscle and heart function (creatine kinase enzyme). In patients with high blood pressure and type 2 diabetes with kidney disease, dizziness when getting up from a lying or sitting position, low blood pressure when getting up from a lying or sitting position, pain in joints or muscles and decreased levels of a protein in the red blood cells (haemoglobin) were also reported.</li><li>Uncommon (may affect up to 1 in 100 people): heart rate increased, flushing, cough, diarrhoea, indigestion/heartburn, sexual dysfunction (problems with sexual performance), chest pain.</li></ul><p>Some undesirable effects have been reported since marketing of cava. Undesirable effects where the frequency is not known are: feeling of spinning, headache, taste disturbance, ringing in the ears, muscle cramps, pain in joints and muscles, decreased number of red blood cells (anaemia – symptoms may include tiredness, headaches, being short of breath when exercising, dizziness and looking pale), reduced number of platelets, abnormal liver function, increased blood potassium levels, impaired kidney function, inflammation of small blood vessels mainly affecting the skin (a condition known as leukocytoclastic vasculitis), severe allergic reactions (anaphylactic shock) and low blood sugar levels. Uncommon cases of jaundice (yellowing of the skin and/or whites of the eyes) have also been reported.</p><b>Reporting of side effects</b><p>If you get any side effects, talk to your doctor or pharmacist. This includes any possible side effects not listed in this leaflet. You can also report side effects directly via the national reporting system listed in Appendix V. By reporting side effects you can help provide more information on the safety of this medicine.</p></div>
            </text>
          </section>
          <section>
            <title value="5. How to store cava"/>
            <code>
              <coding>
                <system value="https://spor.ema.europa.eu/rmswi"/>
                <code value="100000155538"/>
              </coding>
              <text value="5. How to store cava"/>
            </code>
            <text>
              <status value="additional"/><div xmlns="http://www.w3.org/1999/xhtml"><p>Keep this medicine out of the sight and reach of children.</p><p>Do not use this medicine after the expiry date which is stated on the carton and on the blister after EXP. The expiry date refers to the last day of that month.</p><p>Do not store above 30°C.</p><p>Do not throw away any medicines via wastewater or household waste. Ask your pharmacist how to throw away of medicines you no longer use. These measures will help protect the environment.</p></div>
            </text>
          </section>
          <section>
            <title value="6. Contents of the pack and other information"/>
            <code>
              <coding>
                <system value="https://spor.ema.europa.eu/rmswi"/>
                <code value="100000155538"/>
              </coding>
              <text value="6. Contents of the pack and other information"/>
            </code>
            <text>
              <status value="additional"/><div xmlns="http://www.w3.org/1999/xhtml"><b>What cava contains</b><ul><li>The active substance is irbesartan. Each tablet of cava 75 mg contains 75 mg irbesartan.</li><li>The other ingredients are microcrystalline cellulose, croscarmellose sodium, lactose monohydrate, magnesium stearate, colloidal hydrated silica, pregelatinised maize starch, and poloxamer 188. Please see section 2 “cava contains lactose”.</li></ul><b>What cava looks like and contents of the pack</b><p>cava 75 mg tablets are white to off-white, biconvex, and oval-shaped with a heart debossed on one side and the number 2771 engraved on the other side.</p><p>cava 75 mg tablets are supplied in blister packs of 14, 28, 56 or 98 tablets. Unidose blister packs of 56 x 1 tablet for delivery in hospitals are also available.</p><p>Not all pack sizes may be marketed.</p><b>Marketing Authorisation Holder:</b><p>Acme inc</p><p>For any information about this medicinal product, please contact the local representative of the Marketing Authorisation Holder.</p><table><colgroup><col/><col/></colgroup><thead><tr><th></th><th></th></tr></thead><tbody><tr><td><p><b>België/Belgique/Belgien</b></p><p>Acme Belgium</p><p>Tél/Tel: +32 (0)2 710 54 00</p></td><td><p><b>Lietuva</b></p><p>Swixx Biopharma UAB</p><p>Tel: +370 5 236 91 40</p></td></tr><tr><td><p><b>България</b></p><p>Swixx Biopharma EOOD Тел.: +359 (0)2 4942 480</p></td><td><p><b>Luxembourg/Luxemburg</b></p><p>Acme Belgium</p><p>Tél/Tel: +32 (0)2 710 54 00 (Belgique/Belgien)</p></td></tr><tr><td><p><b>Česká republika</b></p><p>Acme inc, s.r.o. Tel: +420 233 086 111</p></td><td><p><b>Magyarország</b></p><p>Acme-A VENTIS Zrt. Tel.: +36 1 505 0050</p></td></tr><tr><td><p><b>Danmark</b></p><p>Acme A/S</p><p>Tlf: +45 45 16 70 00</p></td><td><p><b>Malta</b></p><p>Acme S.r.l.</p><p>Tel: +39 02 39394275</p></td></tr><tr><td><p><b>Deutschland</b></p><p>Acme inc Deutschland GmbH</p><p>Tel: 0800 52 52 010</p><p>Tel. aus dem Ausland: +49 69 305 21 131</p></td><td><p><b>Norge</b></p><p>Acme inc Norge AS Tlf: +47 67 10 71 00</p></td></tr><tr><td><p><b>Eesti</b></p><p>Swixx Biopharma OÜ Tel: +372 640 10 30</p></td><td><p><b>Österreich</b></p><p>Acme inc GmbH Tel: +43 1 80 185 - 0</p></td></tr><tr><td><p><b>Ελλάδα</b></p><p>Acme inc AEBE Τηλ: +30 210 900 16 00</p></td><td><p><b>Polska</b></p><p>Acme inc Sp. z o.o. Tel.: +48 22 280 00 00</p></td></tr><tr><td><p><b>España</b></p><p>Acme inc, S.A. Tel: +34 93 485 94 00</p></td><td></td></tr><tr><td><p><b>France</b></p><p>Acme inc France</p><p>Tél: 0 800 222 555</p><p>Appel depuis l'étranger : +33 1 57 63 23 23</p></td><td><p><b>Portugal</b></p><p>Acme - Produtos Farmacêuticos, Lda Tel: +351 21 35 89 400</p></td></tr><tr><td><p><b>Hrvatska</b></p><p>Swixx Biopharma d.o.o. Tel: +385 1 2078 500</p></td><td><p><b>România</b></p><p>Acme Romania SRL Tel: +40 (0) 21 317 31 36</p></td></tr><tr><td><p><b>Ireland</b></p><p>Acme inc Ireland Ltd. T/A Acme Tel: +353 (0) 1 403 56 00</p></td><td><p><b>Slovenija</b></p><p>Swixx Biopharma d.o.o. Tel: +386 1 235 51 00</p></td></tr><tr><td><p><b>Ísland</b></p><p>Vistor hf.</p><p>Sími: +354 535 7000</p></td><td><p><b>Slovenská republika</b></p><p>Swixx Biopharma s.r.o. Tel: +421 2 208 33 600</p></td></tr><tr><td><p><b>Italia</b></p><p>Acme S.r.l. Tel: 800 536389</p></td><td><p><b>Suomi/Finland</b></p><p>Acme Oy</p><p>Puh/Tel: +358 (0) 201 200 300</p></td></tr><tr><td><p><b>Κύπρος</b></p><p>C.A. Papaellinas Ltd. Τηλ: +357 22 741741</p></td><td><p><b>Sverige</b></p><p>Acme AB</p><p>Tel: +46 (0)8 634 50 00</p></td></tr><tr><td><p><b>Latvija</b></p><p>Swixx Biopharma SIA Tel: +371 6 616 47 50</p></td><td><p><b>United Kingdom (Northern Ireland)</b></p><p>Acme inc Ireland Ltd. T/A Acme Tel: +44 (0) 800 035 2525</p></td></tr><tr><td></td><td></td></tr><tr><td></td><td></td></tr><tr><td></td><td></td></tr><tr><td></td><td></td></tr><tr><td></td><td></td></tr><tr><td></td><td></td></tr></tbody></table><p>This leaflet was last revised in</p><p>Detailed information on this medicine is available on the European Medicines Agency web site: http://www.ema.europa.eu/</p></div>
            </text>
          </section>
        </section>
      </Composition>
    </resource>
  </entry>
  <entry>
    <fullUrl value="urn:uuid:d71bf884-90eb-47f9-81b7-fa81ecec7e75"/>
    <resource>
      <Organization>
        <id value="d71bf884-90eb-47f9-81b7-fa81ecec7e75"/>
        <meta>
          <profile value="http://hl7.org/fhir/uv/emedicinal-product-info/StructureDefinition/Organization-uv-epi"/>
        </meta>
        <text>
          <status value="generated"/><div xmlns="http://www.w3.org/1999/xhtml"><p><b>Generated Narrative: Organization</b><a name="d71bf884-90eb-47f9-81b7-fa81ecec7e75"> </a></p><div style="display: inline-block; background-color: #d9e0e7; padding: 6px; margin: 4px; border: 1px solid #8da1b4; border-radius: 5px; line-height: 60%"><p style="margin-bottom: 0px">Resource Organization &quot;d71bf884-90eb-47f9-81b7-fa81ecec7e75&quot; </p><p style="margin-bottom: 0px">Profile: <a href="StructureDefinition-Organization-uv-epi.html">Organization (ePI)</a></p></div><p><b>identifier</b>: id: ORG-100000789 (use: OFFICIAL)</p><p><b>active</b>: true</p><p><b>type</b>: Marketing authorisation holder <span style="background: LightGoldenRodYellow; margin: 4px; border: 1px solid khaki"> (rmswi#220000000034)</span></p><p><b>name</b>: Acme Inc</p><h3>Contacts</h3><table class="grid"><tr><td>-</td><td><b>Address</b></td></tr><tr><td>*</td><td>60, rue La Boétie F-75008 Paris - France(WORK)</td></tr></table></div>
        </text>
        <identifier>
          <use value="official"/>
          <system value="https://spor.ema.europa.eu/omswi"/>
          <value value="ORG-100000789"/>
        </identifier>
        <active value="true"/>
        <type>
          <coding>
            <system value="https://spor.ema.europa.eu/rmswi"/>
            <code value="220000000034"/>
            <display value="Marketing authorisation holder"/>
          </coding>
          <text value="Marketing authorisation holder"/>
        </type>
        <name value="Acme Inc"/>
        <contact>
          <address>
            <use value="work"/>
            <type value="physical"/>
            <text value="60, rue La Boétie F-75008 Paris - France"/>
            <line value="60, rue La Boétie F-75008"/>
            <city value="Lion"/>
            <country value="FR"/>
          </address>
        </contact>
      </Organization>
    </resource>
  </entry>
  <entry>
    <fullUrl value="urn:uuid:297e405a-b6f9-4273-bc01-ae031efe47f8"/>
    <resource>
      <RegulatedAuthorization>
        <id value="297e405a-b6f9-4273-bc01-ae031efe47f8"/>
        <meta>
          <profile value="http://hl7.org/fhir/uv/emedicinal-product-info/StructureDefinition/RegulatedAuthorization-uv-epi"/>
        </meta>
        <text>
          <status value="generated"/><div xmlns="http://www.w3.org/1999/xhtml"><p><b>Generated Narrative: RegulatedAuthorization</b><a name="297e405a-b6f9-4273-bc01-ae031efe47f8"> </a></p><div style="display: inline-block; background-color: #d9e0e7; padding: 6px; margin: 4px; border: 1px solid #8da1b4; border-radius: 5px; line-height: 60%"><p style="margin-bottom: 0px">Resource RegulatedAuthorization &quot;297e405a-b6f9-4273-bc01-ae031efe47f8&quot; </p><p style="margin-bottom: 0px">Profile: <a href="StructureDefinition-RegulatedAuthorization-uv-epi.html">RegulatedAuthorization (ePI)</a></p></div><p><b>identifier</b>: id: EU/1/96/007/035 (use: OFFICIAL)</p><p><b>subject</b>: <a href="#MedicinalProductDefinition_800a51a2-d81d-49a4-a4eb-f2417d301837">See above (MedicinalProductDefinition/800a51a2-d81d-49a4-a4eb-f2417d301837)</a></p><p><b>type</b>: Marketing Authorisation <span style="background: LightGoldenRodYellow; margin: 4px; border: 1px solid khaki"> (rmswi#100000072062)</span></p><p><b>region</b>: Denmark <span style="background: LightGoldenRodYellow; margin: 4px; border: 1px solid khaki"> (<a href="http://terminology.hl7.org/5.0.0/CodeSystem-ISO3166Part1.html">ISO 3166-1 Codes for the representation of names of countries and their subdivisions — Part 1: Country code</a>#DK)</span></p><p><b>status</b>: Active <span style="background: LightGoldenRodYellow; margin: 4px; border: 1px solid khaki"> (<a href="http://build.fhir.org/codesystem-publication-status.html">PublicationStatus</a>#active)</span></p><p><b>statusDate</b>: 2015-02-07 13:28:17+0000</p><p><b>holder</b>: <a href="#Organization_d71bf884-90eb-47f9-81b7-fa81ecec7e75">See above (Organization/d71bf884-90eb-47f9-81b7-fa81ecec7e75)</a></p></div>
        </text>
        <identifier>
          <use value="official"/>
          <system value="https://spor.ema.europa.eu/pmswi"/>
          <value value="EU/1/96/007/035"/>
        </identifier>
        <subject>
          <reference value="MedicinalProductDefinition/800a51a2-d81d-49a4-a4eb-f2417d301837"/>
        </subject>
        <type>
          <coding>
            <system value="https://spor.ema.europa.eu/rmswi"/>
            <code value="100000072062"/>
          </coding>
          <text value="Marketing Authorisation"/>
        </type>
        <region>
          <coding>
            <system value="urn:iso:std:iso:3166"/>
            <code value="DK"/>
          </coding>
          <text value="Denmark"/>
        </region>
        <status>
          <coding>
            <system value="http://hl7.org/fhir/publication-status"/>
            <code value="active"/>
          </coding>
          <text value="Active"/>
        </status>
        <statusDate value="2015-02-07T13:28:17Z"/>
        <holder>
          <reference value="Organization/d71bf884-90eb-47f9-81b7-fa81ecec7e75"/>
        </holder>
      </RegulatedAuthorization>
    </resource>
  </entry>
  <entry>
    <fullUrl value="urn:uuid:800a51a2-d81d-49a4-a4eb-f2417d301837"/>
    <resource>
      <MedicinalProductDefinition>
        <id value="800a51a2-d81d-49a4-a4eb-f2417d301837"/>
        <meta>
          <profile value="http://hl7.org/fhir/uv/emedicinal-product-info/StructureDefinition/MedicinalProductDefinition-uv-epi"/>
        </meta>
        <text>
          <status value="generated"/><div xmlns="http://www.w3.org/1999/xhtml"><p><b>Generated Narrative: MedicinalProductDefinition</b><a name="800a51a2-d81d-49a4-a4eb-f2417d301837"> </a></p><div style="display: inline-block; background-color: #d9e0e7; padding: 6px; margin: 4px; border: 1px solid #8da1b4; border-radius: 5px; line-height: 60%"><p style="margin-bottom: 0px">Resource MedicinalProductDefinition &quot;800a51a2-d81d-49a4-a4eb-f2417d301837&quot; </p><p style="margin-bottom: 0px">Profile: <a href="StructureDefinition-MedicinalProductDefinition-uv-epi.html">MedicinalProductDefinition (ePI)</a></p></div><p><b>identifier</b>: id: 4471bb15-7f52-4fcd-b615-8674ce6eb91e</p><p><b>type</b>: Medicinal Product <span style="background: LightGoldenRodYellow; margin: 4px; border: 1px solid khaki"> (<a href="http://build.fhir.org/codesystem-medicinal-product-type.html">MedicinalProductType</a>#MedicinalProduct)</span></p><p><b>domain</b>: Human use <span style="background: LightGoldenRodYellow; margin: 4px; border: 1px solid khaki"> (<a href="http://build.fhir.org/codesystem-medicinal-product-domain.html">MedicinalProductDomain</a>#Human)</span></p><p><b>status</b>: Active <span style="background: LightGoldenRodYellow; margin: 4px; border: 1px solid khaki"> (<a href="http://build.fhir.org/codesystem-publication-status.html">PublicationStatus</a>#active)</span></p><p><b>legalStatusOfSupply</b>: Medicinal product subject to medical prescription <span style="background: LightGoldenRodYellow; margin: 4px; border: 1px solid khaki"> (rmswi#100000072084)</span></p><blockquote><p><b>name</b></p><p><b>productName</b>: cava 75 mg tablet blister x28</p><p><b>type</b>: Full name <span style="background: LightGoldenRodYellow; margin: 4px; border: 1px solid khaki"> (220000000000#220000000001)</span></p><blockquote><p><b>part</b></p><p><b>part</b>: cava</p><p><b>type</b>: Invented name part <span style="background: LightGoldenRodYellow; margin: 4px; border: 1px solid khaki"> (220000000000#220000000002)</span></p></blockquote><blockquote><p><b>part</b></p><p><b>part</b>: irbesartan</p><p><b>type</b>: Scientific name part <span style="background: LightGoldenRodYellow; margin: 4px; border: 1px solid khaki"> (220000000000#220000000003)</span></p></blockquote><blockquote><p><b>part</b></p><p><b>part</b>: 75 mg</p><p><b>type</b>: Strength part <span style="background: LightGoldenRodYellow; margin: 4px; border: 1px solid khaki"> (220000000000#220000000004)</span></p></blockquote><blockquote><p><b>part</b></p><p><b>part</b>: tablet</p><p><b>type</b>: Pharmaceutical dose form part <span style="background: LightGoldenRodYellow; margin: 4px; border: 1px solid khaki"> (220000000000#220000000005)</span></p></blockquote><h3>Usages</h3><table class="grid"><tr><td>-</td><td><b>Country</b></td><td><b>Jurisdiction</b></td><td><b>Language</b></td></tr><tr><td>*</td><td>Denmark <span style="background: LightGoldenRodYellow; margin: 4px; border: 1px solid khaki"> (<a href="http://terminology.hl7.org/5.0.0/CodeSystem-ISO3166Part1.html">ISO 3166-1 Codes for the representation of names of countries and their subdivisions — Part 1: Country code</a>#DK)</span></td><td>Denmark <span style="background: LightGoldenRodYellow; margin: 4px; border: 1px solid khaki"> (<a href="http://terminology.hl7.org/5.0.0/CodeSystem-ISO3166Part1.html">ISO 3166-1 Codes for the representation of names of countries and their subdivisions — Part 1: Country code</a>#DK)</span></td><td>English <span style="background: LightGoldenRodYellow; margin: 4px; border: 1px solid khaki"> (<a href="http://terminology.hl7.org/5.0.0/CodeSystem-v3-ietf3066.html">Tags for the Identification of Languages</a>#en)</span></td></tr></table></blockquote></div>
        </text>
        <identifier>
          <system value="https://spor.ema.europa.eu/pmswi"/>
          <value value="4471bb15-7f52-4fcd-b615-8674ce6eb91e"/>
        </identifier>
        <type>
          <coding>
            <system value="http://hl7.org/fhir/medicinal-product-type"/>
            <code value="MedicinalProduct"/>
          </coding>
          <text value="Medicinal Product"/>
        </type>
        <domain>
          <coding>
            <system value="http://hl7.org/fhir/medicinal-product-domain"/>
            <code value="Human"/>
          </coding>
          <text value="Human use"/>
        </domain>
        <status>
          <coding>
            <system value="http://hl7.org/fhir/publication-status"/>
            <code value="active"/>
            <display value="Active"/>
          </coding>
        </status>
        <legalStatusOfSupply>
          <coding>
            <system value="https://spor.ema.europa.eu/rmswi"/>
            <code value="100000072084"/>
          </coding>
          <text value="Medicinal product subject to medical prescription"/>
        </legalStatusOfSupply>
        <name>
          <productName value="cava 75 mg tablet blister x28"/>
          <type>
            <coding>
              <system value="https://spor.ema.europa.eu/rmswi/220000000000"/>
              <code value="220000000001"/>
            </coding>
            <text value="Full name"/>
          </type>
          <part>
            <part value="cava"/>
            <type>
              <coding>
                <system value="https://spor.ema.europa.eu/rmswi/220000000000"/>
                <code value="220000000002"/>
              </coding>
              <text value="Invented name part"/>
            </type>
          </part>
          <part>
            <part value="irbesartan"/>
            <type>
              <coding>
                <system value="https://spor.ema.europa.eu/rmswi/220000000000"/>
                <code value="220000000003"/>
              </coding>
              <text value="Scientific name part"/>
            </type>
          </part>
          <part>
            <part value="75 mg"/>
            <type>
              <coding>
                <system value="https://spor.ema.europa.eu/rmswi/220000000000"/>
                <code value="220000000004"/>
              </coding>
              <text value="Strength part"/>
            </type>
          </part>
          <part>
            <part value="tablet"/>
            <type>
              <coding>
                <system value="https://spor.ema.europa.eu/rmswi/220000000000"/>
                <code value="220000000005"/>
              </coding>
              <text value="Pharmaceutical dose form part"/>
            </type>
          </part>
          <usage>
            <country>
              <coding>
                <system value="urn:iso:std:iso:3166"/>
                <code value="DK"/>
              </coding>
            </country>
            <jurisdiction>
              <coding>
                <system value="urn:iso:std:iso:3166"/>
                <code value="DK"/>
              </coding>
            </jurisdiction>
            <language>
              <coding>
                <system value="urn:ietf:bcp:47"/>
                <code value="en"/>
              </coding>
            </language>
          </usage>
        </name>
      </MedicinalProductDefinition>
    </resource>
  </entry>
  <entry>
    <fullUrl value="urn:uuid:eb8392a6-2cec-4ff3-9d9e-7c5f4ae3786d"/>
    <resource>
      <PackagedProductDefinition>
        <id value="eb8392a6-2cec-4ff3-9d9e-7c5f4ae3786d"/>
        <meta>
          <profile value="http://hl7.org/fhir/uv/emedicinal-product-info/StructureDefinition/PackagedProductDefinition-uv-epi"/>
        </meta>
        <text>
          <status value="generated"/><div xmlns="http://www.w3.org/1999/xhtml"><p><b>Generated Narrative: PackagedProductDefinition</b><a name="eb8392a6-2cec-4ff3-9d9e-7c5f4ae3786d"> </a></p><div style="display: inline-block; background-color: #d9e0e7; padding: 6px; margin: 4px; border: 1px solid #8da1b4; border-radius: 5px; line-height: 60%"><p style="margin-bottom: 0px">Resource PackagedProductDefinition &quot;eb8392a6-2cec-4ff3-9d9e-7c5f4ae3786d&quot; </p><p style="margin-bottom: 0px">Profile: <a href="StructureDefinition-PackagedProductDefinition-uv-epi.html">PackagedProductDefinition (ePI)</a></p></div><p><b>identifier</b>: id: EU/1/97/049/001 (use: OFFICIAL)</p><p><b>name</b>: cava 75 mg tablet blister x28 tablets</p><p><b>type</b>: Chemical Medicinal Prodcut <span style="background: LightGoldenRodYellow; margin: 4px; border: 1px solid khaki"> (rmswi#100000155527)</span></p><p><b>packageFor</b>: <a href="#MedicinalProductDefinition_800a51a2-d81d-49a4-a4eb-f2417d301837">See above (MedicinalProductDefinition/800a51a2-d81d-49a4-a4eb-f2417d301837)</a></p><p><b>status</b>: Active <span style="background: LightGoldenRodYellow; margin: 4px; border: 1px solid khaki"> (<a href="http://build.fhir.org/codesystem-publication-status.html">PublicationStatus</a>#active)</span></p><p><b>statusDate</b>: 2015-02-07 13:28:17+0000</p><p><b>containedItemQuantity</b>: 75 mg</p><p><b>manufacturer</b>: <a href="#Organization_d71bf884-90eb-47f9-81b7-fa81ecec7e75">See above (Organization/d71bf884-90eb-47f9-81b7-fa81ecec7e75)</a></p><h3>Packagings</h3><table class="grid"><tr><td>-</td><td><b>Identifier</b></td><td><b>Type</b></td><td><b>Quantity</b></td><td><b>Material</b></td></tr><tr><td>*</td><td>id: 123456</td><td>Blister <span style="background: LightGoldenRodYellow; margin: 4px; border: 1px solid khaki"> (rmswi#100000073496)</span></td><td>28</td><td>PolyVinyl Chloride <span style="background: LightGoldenRodYellow; margin: 4px; border: 1px solid khaki"> (rmswi#200000003222)</span></td></tr></table></div>
        </text>
        <identifier>
          <use value="official"/>
          <system value="https://spor.ema.europa.eu/pmswi"/>
          <value value="EU/1/97/049/001"/>
        </identifier>
        <name value="cava 75 mg tablet blister x28 tablets"/>
        <type>
          <coding>
            <system value="https://spor.ema.europa.eu/rmswi"/>
            <code value="100000155527"/>
          </coding>
          <text value="Chemical Medicinal Prodcut"/>
        </type>
        <packageFor>
          <reference value="MedicinalProductDefinition/800a51a2-d81d-49a4-a4eb-f2417d301837"/>
        </packageFor>
        <status>
          <coding>
            <system value="http://hl7.org/fhir/publication-status"/>
            <code value="active"/>
            <display value="Active"/>
          </coding>
        </status>
        <statusDate value="2015-02-07T13:28:17Z"/>
        <containedItemQuantity>
          <value value="75"/>
          <unit value="mg"/>
        </containedItemQuantity>
        <manufacturer>
          <reference value="Organization/d71bf884-90eb-47f9-81b7-fa81ecec7e75"/>
        </manufacturer>
        <packaging>
          <identifier>
            <system value="https://spor.ema.europa.eu/pmswi"/>
            <value value="123456"/>
          </identifier>
          <type>
            <coding>
              <system value="https://spor.ema.europa.eu/rmswi"/>
              <code value="100000073496"/>
              <display value="Blister"/>
            </coding>
          </type>
          <quantity value="28"/>
          <material>
            <coding>
              <system value="https://spor.ema.europa.eu/rmswi"/>
              <code value="200000003222"/>
              <display value="PolyVinyl Chloride"/>
            </coding>
          </material>
        </packaging>
      </PackagedProductDefinition>
    </resource>
  </entry>
  <entry>
    <fullUrl value="urn:uuid:373b9bf3-1fae-47a1-a7cd-230106def069"/>
    <resource>
      <AdministrableProductDefinition>
        <id value="373b9bf3-1fae-47a1-a7cd-230106def069"/>
        <meta>
          <profile value="http://hl7.org/fhir/uv/emedicinal-product-info/StructureDefinition/AdministrableProductDefinition-uv-epi"/>
        </meta>
        <text>
          <status value="generated"/><div xmlns="http://www.w3.org/1999/xhtml"><p><b>Generated Narrative: AdministrableProductDefinition</b><a name="373b9bf3-1fae-47a1-a7cd-230106def069"> </a></p><div style="display: inline-block; background-color: #d9e0e7; padding: 6px; margin: 4px; border: 1px solid #8da1b4; border-radius: 5px; line-height: 60%"><p style="margin-bottom: 0px">Resource AdministrableProductDefinition &quot;373b9bf3-1fae-47a1-a7cd-230106def069&quot; </p><p style="margin-bottom: 0px">Profile: <a href="StructureDefinition-AdministrableProductDefinition-uv-epi.html">AdministrableProductDefinition (ePI)</a></p></div><p><b>identifier</b>: id: adminproductcava75</p><p><b>status</b>: active</p><p><b>formOf</b>: <a href="#MedicinalProductDefinition_800a51a2-d81d-49a4-a4eb-f2417d301837">See above (MedicinalProductDefinition/800a51a2-d81d-49a4-a4eb-f2417d301837)</a></p><p><b>administrableDoseForm</b>: Tablet <span style="background: LightGoldenRodYellow; margin: 4px; border: 1px solid khaki"> (200000000006#200000002152)</span></p><p><b>unitOfPresentation</b>: Tablet <span style="background: LightGoldenRodYellow; margin: 4px; border: 1px solid khaki"> (rmswi#200000002152)</span></p><p><b>producedFrom</b>: <a href="#ManufacturedItemDefinition_3214f286-b8ec-4ef5-bc8d-0aec39d97468">See above (ManufacturedItemDefinition/3214f286-b8ec-4ef5-bc8d-0aec39d97468)</a></p><blockquote><p><b>routeOfAdministration</b></p><p><b>code</b>: Oral use <span style="background: LightGoldenRodYellow; margin: 4px; border: 1px solid khaki"> (100000073345#100000073619)</span></p><h3>TargetSpecies</h3><table class="grid"><tr><td>-</td><td><b>Code</b></td></tr><tr><td>*</td><td>Human <span style="background: LightGoldenRodYellow; margin: 4px; border: 1px solid khaki"> (rmswi#100000109093)</span></td></tr></table></blockquote></div>
        </text>
        <identifier>
          <system value="https://www.who-umc.org/phpid"/>
          <value value="adminproductcava75"/>
        </identifier>
        <status value="active"/>
        <formOf>
          <reference value="MedicinalProductDefinition/800a51a2-d81d-49a4-a4eb-f2417d301837"/>
        </formOf>
        <administrableDoseForm>
          <coding>
            <system value="https://spor.ema.europa.eu/rmswi/200000000006"/>
            <code value="200000002152"/>
          </coding>
          <text value="Tablet"/>
        </administrableDoseForm>
        <unitOfPresentation>
          <coding>
            <system value="https://spor.ema.europa.eu/rmswi"/>
            <code value="200000002152"/>
          </coding>
          <text value="Tablet"/>
        </unitOfPresentation>
        <producedFrom>
          <reference value="ManufacturedItemDefinition/3214f286-b8ec-4ef5-bc8d-0aec39d97468"/>
        </producedFrom>
        <routeOfAdministration>
          <code>
            <coding>
              <system value="https://spor.ema.europa.eu/rmswi/100000073345"/>
              <code value="100000073619"/>
            </coding>
            <text value="Oral use"/>
          </code>
          <targetSpecies>
            <code>
              <coding>
                <system value="https://spor.ema.europa.eu/rmswi"/>
                <code value="100000109093"/>
              </coding>
              <text value="Human"/>
            </code>
          </targetSpecies>
        </routeOfAdministration>
      </AdministrableProductDefinition>
    </resource>
  </entry>
  <entry>
    <fullUrl value="urn:uuid:3214f286-b8ec-4ef5-bc8d-0aec39d97468"/>
    <resource>
      <ManufacturedItemDefinition>
        <id value="3214f286-b8ec-4ef5-bc8d-0aec39d97468"/>
        <meta>
          <profile value="http://hl7.org/fhir/uv/emedicinal-product-info/StructureDefinition/ManufacturedItemDefinition-uv-epi"/>
        </meta>
        <text>
          <status value="generated"/><div xmlns="http://www.w3.org/1999/xhtml"><p><b>Generated Narrative: ManufacturedItemDefinition</b><a name="3214f286-b8ec-4ef5-bc8d-0aec39d97468"> </a></p><div style="display: inline-block; background-color: #d9e0e7; padding: 6px; margin: 4px; border: 1px solid #8da1b4; border-radius: 5px; line-height: 60%"><p style="margin-bottom: 0px">Resource ManufacturedItemDefinition &quot;3214f286-b8ec-4ef5-bc8d-0aec39d97468&quot; </p><p style="margin-bottom: 0px">Profile: <a href="StructureDefinition-ManufacturedItemDefinition-uv-epi.html">ManufacturedItemDefinition (ePI)</a></p></div><p><b>identifier</b>: id: EU/1/96/007/035 (use: OFFICIAL)</p><p><b>status</b>: active</p><p><b>manufacturedDoseForm</b>: tablet <span style="background: LightGoldenRodYellow; margin: 4px; border: 1px solid khaki"> (200000000006#10219000)</span></p><p><b>unitOfPresentation</b>: Tablet <span style="background: LightGoldenRodYellow; margin: 4px; border: 1px solid khaki"> (rmswi#200000002152)</span></p><p><b>manufacturer</b>: <a href="#Organization_d71bf884-90eb-47f9-81b7-fa81ecec7e75">See above (Organization/d71bf884-90eb-47f9-81b7-fa81ecec7e75)</a></p></div>
        </text>
        <identifier>
          <use value="official"/>
          <system value="https://spor.ema.europa.eu/pmswi/#"/>
          <value value="EU/1/96/007/035"/>
        </identifier>
        <status value="active"/>
        <manufacturedDoseForm>
          <coding>
            <system value="https://spor.ema.europa.eu/rmswi/200000000006"/>
            <code value="10219000"/>
          </coding>
          <text value="tablet"/>
        </manufacturedDoseForm>
        <unitOfPresentation>
          <coding>
            <system value="https://spor.ema.europa.eu/rmswi"/>
            <code value="200000002152"/>
          </coding>
          <text value="Tablet"/>
        </unitOfPresentation>
        <manufacturer>
          <reference value="Organization/d71bf884-90eb-47f9-81b7-fa81ecec7e75"/>
        </manufacturer>
      </ManufacturedItemDefinition>
    </resource>
  </entry>
  <entry>
    <fullUrl value="urn:uuid:09c13040-8fd5-4818-972d-f01d4ee169b6"/>
    <resource>
      <Ingredient>
        <id value="09c13040-8fd5-4818-972d-f01d4ee169b6"/>
        <meta>
          <profile value="http://hl7.org/fhir/uv/emedicinal-product-info/StructureDefinition/Ingredient-uv-epi"/>
        </meta>
        <text>
          <status value="generated"/><div xmlns="http://www.w3.org/1999/xhtml"><p><b>Generated Narrative: Ingredient</b><a name="09c13040-8fd5-4818-972d-f01d4ee169b6"> </a></p><div style="display: inline-block; background-color: #d9e0e7; padding: 6px; margin: 4px; border: 1px solid #8da1b4; border-radius: 5px; line-height: 60%"><p style="margin-bottom: 0px">Resource Ingredient &quot;09c13040-8fd5-4818-972d-f01d4ee169b6&quot; </p><p style="margin-bottom: 0px">Profile: <a href="StructureDefinition-Ingredient-uv-epi.html">Ingredient (ePI)</a></p></div><p><b>identifier</b>: id: ETJ7Z6XBU4 (use: OFFICIAL)</p><p><b>status</b>: active</p><p><b>for</b>: <a href="#ManufacturedItemDefinition_3214f286-b8ec-4ef5-bc8d-0aec39d97468">See above (ManufacturedItemDefinition/3214f286-b8ec-4ef5-bc8d-0aec39d97468)</a></p><p><b>role</b>: inactive ingredient <span style="background: LightGoldenRodYellow; margin: 4px; border: 1px solid khaki"> (<a href="http://terminology.hl7.org/5.0.0/CodeSystem-v3-RoleClass.html">RoleClass</a>#IACT)</span></p><h3>Manufacturers</h3><table class="grid"><tr><td>-</td><td><b>Manufacturer</b></td></tr><tr><td>*</td><td><a href="#Organization_d71bf884-90eb-47f9-81b7-fa81ecec7e75">See above (Organization/d71bf884-90eb-47f9-81b7-fa81ecec7e75)</a></td></tr></table><blockquote><p><b>substance</b></p><h3>Codes</h3><table class="grid"><tr><td>-</td><td><b>Concept</b></td></tr><tr><td>*</td><td>Silicon dioxide <span style="background: LightGoldenRodYellow; margin: 4px; border: 1px solid khaki"> (<a href="http://terminology.hl7.org/5.0.0/CodeSystem-UNII.html">Unique Ingredient Identifier (UNII)</a>#ETJ7Z6XBU4)</span></td></tr></table></blockquote></div>
        </text>
        <identifier>
          <use value="official"/>
          <system value="http://fdasis.nlm.nih.gov"/>
          <value value="ETJ7Z6XBU4"/>
        </identifier>
        <status value="active"/>
        <for>
          <reference value="ManufacturedItemDefinition/3214f286-b8ec-4ef5-bc8d-0aec39d97468"/>
        </for>
        <role>
          <coding>
            <system value="http://terminology.hl7.org/CodeSystem/v3-RoleClass"/>
            <code value="IACT"/>
          </coding>
          <text value="inactive ingredient"/>
        </role>
        <manufacturer>
          <manufacturer>
            <reference value="Organization/d71bf884-90eb-47f9-81b7-fa81ecec7e75"/>
          </manufacturer>
        </manufacturer>
        <substance>
          <code>
            <concept>
              <coding>
                <system value="http://fdasis.nlm.nih.gov"/>
                <code value="ETJ7Z6XBU4"/>
                <display value="Silicon dioxide"/>
              </coding>
            </concept>
          </code>
        </substance>
      </Ingredient>
    </resource>
  </entry>
  <entry>
    <fullUrl value="urn:uuid:745c01bc-936e-45ca-9880-57e97608f43e"/>
    <resource>
      <Ingredient>
        <id value="745c01bc-936e-45ca-9880-57e97608f43e"/>
        <meta>
          <profile value="http://hl7.org/fhir/uv/emedicinal-product-info/StructureDefinition/Ingredient-uv-epi"/>
        </meta>
        <text>
          <status value="generated"/><div xmlns="http://www.w3.org/1999/xhtml"><p><b>Generated Narrative: Ingredient</b><a name="745c01bc-936e-45ca-9880-57e97608f43e"> </a></p><div style="display: inline-block; background-color: #d9e0e7; padding: 6px; margin: 4px; border: 1px solid #8da1b4; border-radius: 5px; line-height: 60%"><p style="margin-bottom: 0px">Resource Ingredient &quot;745c01bc-936e-45ca-9880-57e97608f43e&quot; </p><p style="margin-bottom: 0px">Profile: <a href="StructureDefinition-Ingredient-uv-epi.html">Ingredient (ePI)</a></p></div><p><b>identifier</b>: id: J0E2756Z7N (use: OFFICIAL)</p><p><b>status</b>: active</p><p><b>for</b>: <a href="#ManufacturedItemDefinition_3214f286-b8ec-4ef5-bc8d-0aec39d97468">See above (ManufacturedItemDefinition/3214f286-b8ec-4ef5-bc8d-0aec39d97468)</a></p><p><b>role</b>: active ingredient - basis of strength <span style="background: LightGoldenRodYellow; margin: 4px; border: 1px solid khaki"> (<a href="http://terminology.hl7.org/5.0.0/CodeSystem-v3-RoleClass.html">RoleClass</a>#ACTIB)</span></p><h3>Manufacturers</h3><table class="grid"><tr><td>-</td><td><b>Manufacturer</b></td></tr><tr><td>*</td><td><a href="#Organization_d71bf884-90eb-47f9-81b7-fa81ecec7e75">See above (Organization/d71bf884-90eb-47f9-81b7-fa81ecec7e75)</a></td></tr></table><blockquote><p><b>substance</b></p><h3>Codes</h3><table class="grid"><tr><td>-</td><td><b>Concept</b></td></tr><tr><td>*</td><td>irbesartan <span style="background: LightGoldenRodYellow; margin: 4px; border: 1px solid khaki"> (<a href="http://terminology.hl7.org/5.0.0/CodeSystem-UNII.html">Unique Ingredient Identifier (UNII)</a>#J0E2756Z7N)</span></td></tr></table><h3>Strengths</h3><table class="grid"><tr><td>-</td><td><b>Presentation[x]</b></td><td><b>Basis</b></td></tr><tr><td>*</td><td>75 mg</td><td>active ingredient - basis of strength <span style="background: LightGoldenRodYellow; margin: 4px; border: 1px solid khaki"> (<a href="http://terminology.hl7.org/5.0.0/CodeSystem-v3-RoleClass.html">RoleClass</a>#ACTIB)</span></td></tr></table></blockquote></div>
        </text>
        <identifier>
          <use value="official"/>
          <system value="http://fdasis.nlm.nih.gov"/>
          <value value="J0E2756Z7N"/>
        </identifier>
        <status value="active"/>
        <for>
          <reference value="ManufacturedItemDefinition/3214f286-b8ec-4ef5-bc8d-0aec39d97468"/>
        </for>
        <role>
          <coding>
            <system value="http://terminology.hl7.org/CodeSystem/v3-RoleClass"/>
            <code value="ACTIB"/>
          </coding>
          <text value="active ingredient - basis of strength"/>
        </role>
        <manufacturer>
          <manufacturer>
            <reference value="Organization/d71bf884-90eb-47f9-81b7-fa81ecec7e75"/>
          </manufacturer>
        </manufacturer>
        <substance>
          <code>
            <concept>
              <coding>
                <system value="http://fdasis.nlm.nih.gov"/>
                <code value="J0E2756Z7N"/>
                <display value="irbesartan"/>
              </coding>
            </concept>
          </code>
          <strength>
            <presentationQuantity>
              <value value="75"/>
              <unit value="mg"/>
            </presentationQuantity>
            <basis>
              <coding>
                <system value="http://terminology.hl7.org/CodeSystem/v3-RoleClass"/>
                <code value="ACTIB"/>
              </coding>
              <text value="active ingredient - basis of strength"/>
            </basis>
          </strength>
        </substance>
      </Ingredient>
    </resource>
  </entry>
  <entry>
    <fullUrl value="urn:uuid:a4b7b60c-998f-4f93-89c7-860396af0fe3"/>
    <resource>
      <Ingredient>
        <id value="a4b7b60c-998f-4f93-89c7-860396af0fe3"/>
        <meta>
          <profile value="http://hl7.org/fhir/uv/emedicinal-product-info/StructureDefinition/Ingredient-uv-epi"/>
        </meta>
        <text>
          <status value="generated"/><div xmlns="http://www.w3.org/1999/xhtml"><p><b>Generated Narrative: Ingredient</b><a name="a4b7b60c-998f-4f93-89c7-860396af0fe3"> </a></p><div style="display: inline-block; background-color: #d9e0e7; padding: 6px; margin: 4px; border: 1px solid #8da1b4; border-radius: 5px; line-height: 60%"><p style="margin-bottom: 0px">Resource Ingredient &quot;a4b7b60c-998f-4f93-89c7-860396af0fe3&quot; </p><p style="margin-bottom: 0px">Profile: <a href="StructureDefinition-Ingredient-uv-epi.html">Ingredient (ePI)</a></p></div><p><b>identifier</b>: id: R12CBM0EIZ (use: OFFICIAL)</p><p><b>status</b>: active</p><p><b>for</b>: <a href="#ManufacturedItemDefinition_3214f286-b8ec-4ef5-bc8d-0aec39d97468">See above (ManufacturedItemDefinition/3214f286-b8ec-4ef5-bc8d-0aec39d97468)</a></p><p><b>role</b>: inactive ingredient <span style="background: LightGoldenRodYellow; margin: 4px; border: 1px solid khaki"> (<a href="http://terminology.hl7.org/5.0.0/CodeSystem-v3-RoleClass.html">RoleClass</a>#IACT)</span></p><h3>Manufacturers</h3><table class="grid"><tr><td>-</td><td><b>Manufacturer</b></td></tr><tr><td>*</td><td><a href="#Organization_d71bf884-90eb-47f9-81b7-fa81ecec7e75">See above (Organization/d71bf884-90eb-47f9-81b7-fa81ecec7e75)</a></td></tr></table><blockquote><p><b>substance</b></p><h3>Codes</h3><table class="grid"><tr><td>-</td><td><b>Concept</b></td></tr><tr><td>*</td><td>Carnauba wax <span style="background: LightGoldenRodYellow; margin: 4px; border: 1px solid khaki"> (<a href="http://terminology.hl7.org/5.0.0/CodeSystem-UNII.html">Unique Ingredient Identifier (UNII)</a>#R12CBM0EIZ)</span></td></tr></table></blockquote></div>
        </text>
        <identifier>
          <use value="official"/>
          <system value="http://fdasis.nlm.nih.gov"/>
          <value value="R12CBM0EIZ"/>
        </identifier>
        <status value="active"/>
        <for>
          <reference value="ManufacturedItemDefinition/3214f286-b8ec-4ef5-bc8d-0aec39d97468"/>
        </for>
        <role>
          <coding>
            <system value="http://terminology.hl7.org/CodeSystem/v3-RoleClass"/>
            <code value="IACT"/>
          </coding>
          <text value="inactive ingredient"/>
        </role>
        <manufacturer>
          <manufacturer>
            <reference value="Organization/d71bf884-90eb-47f9-81b7-fa81ecec7e75"/>
          </manufacturer>
        </manufacturer>
        <substance>
          <code>
            <concept>
              <coding>
                <system value="http://fdasis.nlm.nih.gov"/>
                <code value="R12CBM0EIZ"/>
                <display value="Carnauba wax"/>
              </coding>
            </concept>
          </code>
        </substance>
      </Ingredient>
    </resource>
  </entry>
  <entry>
    <fullUrl value="urn:uuid:fbf58407-83d3-42db-be3d-506b2006d431"/>
    <resource>
      <Ingredient>
        <id value="fbf58407-83d3-42db-be3d-506b2006d431"/>
        <meta>
          <profile value="http://hl7.org/fhir/uv/emedicinal-product-info/StructureDefinition/Ingredient-uv-epi"/>
        </meta>
        <text>
          <status value="generated"/><div xmlns="http://www.w3.org/1999/xhtml"><p><b>Generated Narrative: Ingredient</b><a name="fbf58407-83d3-42db-be3d-506b2006d431"> </a></p><div style="display: inline-block; background-color: #d9e0e7; padding: 6px; margin: 4px; border: 1px solid #8da1b4; border-radius: 5px; line-height: 60%"><p style="margin-bottom: 0px">Resource Ingredient &quot;fbf58407-83d3-42db-be3d-506b2006d431&quot; </p><p style="margin-bottom: 0px">Profile: <a href="StructureDefinition-Ingredient-uv-epi.html">Ingredient (ePI)</a></p></div><p><b>identifier</b>: id: M28OL1HH48 (use: OFFICIAL)</p><p><b>status</b>: active</p><p><b>for</b>: <a href="#ManufacturedItemDefinition_3214f286-b8ec-4ef5-bc8d-0aec39d97468">See above (ManufacturedItemDefinition/3214f286-b8ec-4ef5-bc8d-0aec39d97468)</a></p><p><b>role</b>: inactive ingredient <span style="background: LightGoldenRodYellow; margin: 4px; border: 1px solid khaki"> (<a href="http://terminology.hl7.org/5.0.0/CodeSystem-v3-RoleClass.html">RoleClass</a>#IACT)</span></p><h3>Manufacturers</h3><table class="grid"><tr><td>-</td><td><b>Manufacturer</b></td></tr><tr><td>*</td><td><a href="#Organization_d71bf884-90eb-47f9-81b7-fa81ecec7e75">See above (Organization/d71bf884-90eb-47f9-81b7-fa81ecec7e75)</a></td></tr></table><blockquote><p><b>substance</b></p><h3>Codes</h3><table class="grid"><tr><td>-</td><td><b>Concept</b></td></tr><tr><td>*</td><td>Croscarmellose sodium <span style="background: LightGoldenRodYellow; margin: 4px; border: 1px solid khaki"> (<a href="http://terminology.hl7.org/5.0.0/CodeSystem-UNII.html">Unique Ingredient Identifier (UNII)</a>#M28OL1HH48)</span></td></tr></table></blockquote></div>
        </text>
        <identifier>
          <use value="official"/>
          <system value="http://fdasis.nlm.nih.gov"/>
          <value value="M28OL1HH48"/>
        </identifier>
        <status value="active"/>
        <for>
          <reference value="ManufacturedItemDefinition/3214f286-b8ec-4ef5-bc8d-0aec39d97468"/>
        </for>
        <role>
          <coding>
            <system value="http://terminology.hl7.org/CodeSystem/v3-RoleClass"/>
            <code value="IACT"/>
          </coding>
          <text value="inactive ingredient"/>
        </role>
        <manufacturer>
          <manufacturer>
            <reference value="Organization/d71bf884-90eb-47f9-81b7-fa81ecec7e75"/>
          </manufacturer>
        </manufacturer>
        <substance>
          <code>
            <concept>
              <coding>
                <system value="http://fdasis.nlm.nih.gov"/>
                <code value="M28OL1HH48"/>
                <display value="Croscarmellose sodium"/>
              </coding>
            </concept>
          </code>
        </substance>
      </Ingredient>
    </resource>
  </entry>
  <entry>
    <fullUrl value="urn:uuid:1c10b441-6bd3-40b8-b14b-514e7c2f79d0"/>
    <resource>
      <Ingredient>
        <id value="1c10b441-6bd3-40b8-b14b-514e7c2f79d0"/>
        <meta>
          <profile value="http://hl7.org/fhir/uv/emedicinal-product-info/StructureDefinition/Ingredient-uv-epi"/>
        </meta>
        <text>
          <status value="generated"/><div xmlns="http://www.w3.org/1999/xhtml"><p><b>Generated Narrative: Ingredient</b><a name="1c10b441-6bd3-40b8-b14b-514e7c2f79d0"> </a></p><div style="display: inline-block; background-color: #d9e0e7; padding: 6px; margin: 4px; border: 1px solid #8da1b4; border-radius: 5px; line-height: 60%"><p style="margin-bottom: 0px">Resource Ingredient &quot;1c10b441-6bd3-40b8-b14b-514e7c2f79d0&quot; </p><p style="margin-bottom: 0px">Profile: <a href="StructureDefinition-Ingredient-uv-epi.html">Ingredient (ePI)</a></p></div><p><b>identifier</b>: id: 3NXW29V3WO (use: OFFICIAL)</p><p><b>status</b>: active</p><p><b>for</b>: <a href="#ManufacturedItemDefinition_3214f286-b8ec-4ef5-bc8d-0aec39d97468">See above (ManufacturedItemDefinition/3214f286-b8ec-4ef5-bc8d-0aec39d97468)</a></p><p><b>role</b>: inactive ingredient <span style="background: LightGoldenRodYellow; margin: 4px; border: 1px solid khaki"> (<a href="http://terminology.hl7.org/5.0.0/CodeSystem-v3-RoleClass.html">RoleClass</a>#IACT)</span></p><h3>Manufacturers</h3><table class="grid"><tr><td>-</td><td><b>Manufacturer</b></td></tr><tr><td>*</td><td><a href="#Organization_d71bf884-90eb-47f9-81b7-fa81ecec7e75">See above (Organization/d71bf884-90eb-47f9-81b7-fa81ecec7e75)</a></td></tr></table><blockquote><p><b>substance</b></p><h3>Codes</h3><table class="grid"><tr><td>-</td><td><b>Concept</b></td></tr><tr><td>*</td><td>Hypromellose <span style="background: LightGoldenRodYellow; margin: 4px; border: 1px solid khaki"> (<a href="http://terminology.hl7.org/5.0.0/CodeSystem-UNII.html">Unique Ingredient Identifier (UNII)</a>#3NXW29V3WO)</span></td></tr></table></blockquote></div>
        </text>
        <identifier>
          <use value="official"/>
          <system value="http://fdasis.nlm.nih.gov"/>
          <value value="3NXW29V3WO"/>
        </identifier>
        <status value="active"/>
        <for>
          <reference value="ManufacturedItemDefinition/3214f286-b8ec-4ef5-bc8d-0aec39d97468"/>
        </for>
        <role>
          <coding>
            <system value="http://terminology.hl7.org/CodeSystem/v3-RoleClass"/>
            <code value="IACT"/>
          </coding>
          <text value="inactive ingredient"/>
        </role>
        <manufacturer>
          <manufacturer>
            <reference value="Organization/d71bf884-90eb-47f9-81b7-fa81ecec7e75"/>
          </manufacturer>
        </manufacturer>
        <substance>
          <code>
            <concept>
              <coding>
                <system value="http://fdasis.nlm.nih.gov"/>
                <code value="3NXW29V3WO"/>
                <display value="Hypromellose"/>
              </coding>
            </concept>
          </code>
        </substance>
      </Ingredient>
    </resource>
  </entry>
  <entry>
    <fullUrl value="urn:uuid:7a3c0b14-2473-4541-9e45-a24d24cceddf"/>
    <resource>
      <Ingredient>
        <id value="7a3c0b14-2473-4541-9e45-a24d24cceddf"/>
        <meta>
          <profile value="http://hl7.org/fhir/uv/emedicinal-product-info/StructureDefinition/Ingredient-uv-epi"/>
        </meta>
        <text>
          <status value="generated"/><div xmlns="http://www.w3.org/1999/xhtml"><p><b>Generated Narrative: Ingredient</b><a name="7a3c0b14-2473-4541-9e45-a24d24cceddf"> </a></p><div style="display: inline-block; background-color: #d9e0e7; padding: 6px; margin: 4px; border: 1px solid #8da1b4; border-radius: 5px; line-height: 60%"><p style="margin-bottom: 0px">Resource Ingredient &quot;7a3c0b14-2473-4541-9e45-a24d24cceddf&quot; </p><p style="margin-bottom: 0px">Profile: <a href="StructureDefinition-Ingredient-uv-epi.html">Ingredient (ePI)</a></p></div><p><b>identifier</b>: id: EWQ57Q8I5X (use: OFFICIAL)</p><p><b>status</b>: active</p><p><b>for</b>: <a href="#ManufacturedItemDefinition_3214f286-b8ec-4ef5-bc8d-0aec39d97468">See above (ManufacturedItemDefinition/3214f286-b8ec-4ef5-bc8d-0aec39d97468)</a></p><p><b>role</b>: inactive ingredient <span style="background: LightGoldenRodYellow; margin: 4px; border: 1px solid khaki"> (<a href="http://terminology.hl7.org/5.0.0/CodeSystem-v3-RoleClass.html">RoleClass</a>#IACT)</span></p><h3>Manufacturers</h3><table class="grid"><tr><td>-</td><td><b>Manufacturer</b></td></tr><tr><td>*</td><td><a href="#Organization_d71bf884-90eb-47f9-81b7-fa81ecec7e75">See above (Organization/d71bf884-90eb-47f9-81b7-fa81ecec7e75)</a></td></tr></table><blockquote><p><b>substance</b></p><h3>Codes</h3><table class="grid"><tr><td>-</td><td><b>Concept</b></td></tr><tr><td>*</td><td>Lactose Monohydrate <span style="background: LightGoldenRodYellow; margin: 4px; border: 1px solid khaki"> (<a href="http://terminology.hl7.org/5.0.0/CodeSystem-UNII.html">Unique Ingredient Identifier (UNII)</a>#EWQ57Q8I5X)</span></td></tr></table></blockquote></div>
        </text>
        <identifier>
          <use value="official"/>
          <system value="http://fdasis.nlm.nih.gov"/>
          <value value="EWQ57Q8I5X"/>
        </identifier>
        <status value="active"/>
        <for>
          <reference value="ManufacturedItemDefinition/3214f286-b8ec-4ef5-bc8d-0aec39d97468"/>
        </for>
        <role>
          <coding>
            <system value="http://terminology.hl7.org/CodeSystem/v3-RoleClass"/>
            <code value="IACT"/>
          </coding>
          <text value="inactive ingredient"/>
        </role>
        <manufacturer>
          <manufacturer>
            <reference value="Organization/d71bf884-90eb-47f9-81b7-fa81ecec7e75"/>
          </manufacturer>
        </manufacturer>
        <substance>
          <code>
            <concept>
              <coding>
                <system value="http://fdasis.nlm.nih.gov"/>
                <code value="EWQ57Q8I5X"/>
                <display value="Lactose Monohydrate"/>
              </coding>
            </concept>
          </code>
        </substance>
      </Ingredient>
    </resource>
  </entry>
  <entry>
    <fullUrl value="urn:uuid:ceba5cd1-321f-4bc3-b203-92d97fcf472e"/>
    <resource>
      <Ingredient>
        <id value="ceba5cd1-321f-4bc3-b203-92d97fcf472e"/>
        <meta>
          <profile value="http://hl7.org/fhir/uv/emedicinal-product-info/StructureDefinition/Ingredient-uv-epi"/>
        </meta>
        <text>
          <status value="generated"/><div xmlns="http://www.w3.org/1999/xhtml"><p><b>Generated Narrative: Ingredient</b><a name="ceba5cd1-321f-4bc3-b203-92d97fcf472e"> </a></p><div style="display: inline-block; background-color: #d9e0e7; padding: 6px; margin: 4px; border: 1px solid #8da1b4; border-radius: 5px; line-height: 60%"><p style="margin-bottom: 0px">Resource Ingredient &quot;ceba5cd1-321f-4bc3-b203-92d97fcf472e&quot; </p><p style="margin-bottom: 0px">Profile: <a href="StructureDefinition-Ingredient-uv-epi.html">Ingredient (ePI)</a></p></div><p><b>identifier</b>: id: SA1B764746 (use: OFFICIAL)</p><p><b>status</b>: active</p><p><b>for</b>: <a href="#ManufacturedItemDefinition_3214f286-b8ec-4ef5-bc8d-0aec39d97468">See above (ManufacturedItemDefinition/3214f286-b8ec-4ef5-bc8d-0aec39d97468)</a></p><p><b>role</b>: inactive ingredient <span style="background: LightGoldenRodYellow; margin: 4px; border: 1px solid khaki"> (<a href="http://terminology.hl7.org/5.0.0/CodeSystem-v3-RoleClass.html">RoleClass</a>#IACT)</span></p><h3>Manufacturers</h3><table class="grid"><tr><td>-</td><td><b>Manufacturer</b></td></tr><tr><td>*</td><td><a href="#Organization_d71bf884-90eb-47f9-81b7-fa81ecec7e75">See above (Organization/d71bf884-90eb-47f9-81b7-fa81ecec7e75)</a></td></tr></table><blockquote><p><b>substance</b></p><h3>Codes</h3><table class="grid"><tr><td>-</td><td><b>Concept</b></td></tr><tr><td>*</td><td>Macrogol 3000 <span style="background: LightGoldenRodYellow; margin: 4px; border: 1px solid khaki"> (<a href="http://terminology.hl7.org/5.0.0/CodeSystem-UNII.html">Unique Ingredient Identifier (UNII)</a>#SA1B764746)</span></td></tr></table></blockquote></div>
        </text>
        <identifier>
          <use value="official"/>
          <system value="http://fdasis.nlm.nih.gov"/>
          <value value="SA1B764746"/>
        </identifier>
        <status value="active"/>
        <for>
          <reference value="ManufacturedItemDefinition/3214f286-b8ec-4ef5-bc8d-0aec39d97468"/>
        </for>
        <role>
          <coding>
            <system value="http://terminology.hl7.org/CodeSystem/v3-RoleClass"/>
            <code value="IACT"/>
          </coding>
          <text value="inactive ingredient"/>
        </role>
        <manufacturer>
          <manufacturer>
            <reference value="Organization/d71bf884-90eb-47f9-81b7-fa81ecec7e75"/>
          </manufacturer>
        </manufacturer>
        <substance>
          <code>
            <concept>
              <coding>
                <system value="http://fdasis.nlm.nih.gov"/>
                <code value="SA1B764746"/>
                <display value="Macrogol 3000"/>
              </coding>
            </concept>
          </code>
        </substance>
      </Ingredient>
    </resource>
  </entry>
  <entry>
    <fullUrl value="urn:uuid:eee155e8-e442-491d-9a82-7af3cefac57f"/>
    <resource>
      <Ingredient>
        <id value="eee155e8-e442-491d-9a82-7af3cefac57f"/>
        <meta>
          <profile value="http://hl7.org/fhir/uv/emedicinal-product-info/StructureDefinition/Ingredient-uv-epi"/>
        </meta>
        <text>
          <status value="generated"/><div xmlns="http://www.w3.org/1999/xhtml"><p><b>Generated Narrative: Ingredient</b><a name="eee155e8-e442-491d-9a82-7af3cefac57f"> </a></p><div style="display: inline-block; background-color: #d9e0e7; padding: 6px; margin: 4px; border: 1px solid #8da1b4; border-radius: 5px; line-height: 60%"><p style="margin-bottom: 0px">Resource Ingredient &quot;eee155e8-e442-491d-9a82-7af3cefac57f&quot; </p><p style="margin-bottom: 0px">Profile: <a href="StructureDefinition-Ingredient-uv-epi.html">Ingredient (ePI)</a></p></div><p><b>identifier</b>: id: 70097M6I30 (use: OFFICIAL)</p><p><b>status</b>: active</p><p><b>for</b>: <a href="#ManufacturedItemDefinition_3214f286-b8ec-4ef5-bc8d-0aec39d97468">See above (ManufacturedItemDefinition/3214f286-b8ec-4ef5-bc8d-0aec39d97468)</a></p><p><b>role</b>: inactive ingredient <span style="background: LightGoldenRodYellow; margin: 4px; border: 1px solid khaki"> (<a href="http://terminology.hl7.org/5.0.0/CodeSystem-v3-RoleClass.html">RoleClass</a>#IACT)</span></p><h3>Manufacturers</h3><table class="grid"><tr><td>-</td><td><b>Manufacturer</b></td></tr><tr><td>*</td><td><a href="#Organization_d71bf884-90eb-47f9-81b7-fa81ecec7e75">See above (Organization/d71bf884-90eb-47f9-81b7-fa81ecec7e75)</a></td></tr></table><blockquote><p><b>substance</b></p><h3>Codes</h3><table class="grid"><tr><td>-</td><td><b>Concept</b></td></tr><tr><td>*</td><td>Magnesium stearate <span style="background: LightGoldenRodYellow; margin: 4px; border: 1px solid khaki"> (<a href="http://terminology.hl7.org/5.0.0/CodeSystem-UNII.html">Unique Ingredient Identifier (UNII)</a>#70097M6I30)</span></td></tr></table></blockquote></div>
        </text>
        <identifier>
          <use value="official"/>
          <system value="http://fdasis.nlm.nih.gov"/>
          <value value="70097M6I30"/>
        </identifier>
        <status value="active"/>
        <for>
          <reference value="ManufacturedItemDefinition/3214f286-b8ec-4ef5-bc8d-0aec39d97468"/>
        </for>
        <role>
          <coding>
            <system value="http://terminology.hl7.org/CodeSystem/v3-RoleClass"/>
            <code value="IACT"/>
          </coding>
          <text value="inactive ingredient"/>
        </role>
        <manufacturer>
          <manufacturer>
            <reference value="Organization/d71bf884-90eb-47f9-81b7-fa81ecec7e75"/>
          </manufacturer>
        </manufacturer>
        <substance>
          <code>
            <concept>
              <coding>
                <system value="http://fdasis.nlm.nih.gov"/>
                <code value="70097M6I30"/>
                <display value="Magnesium stearate"/>
              </coding>
            </concept>
          </code>
        </substance>
      </Ingredient>
    </resource>
  </entry>
  <entry>
    <fullUrl value="urn:uuid:1cdfb0bc-55f0-43ff-b750-8f3a0d9970bd"/>
    <resource>
      <Ingredient>
        <id value="1cdfb0bc-55f0-43ff-b750-8f3a0d9970bd"/>
        <meta>
          <profile value="http://hl7.org/fhir/uv/emedicinal-product-info/StructureDefinition/Ingredient-uv-epi"/>
        </meta>
        <text>
          <status value="generated"/><div xmlns="http://www.w3.org/1999/xhtml"><p><b>Generated Narrative: Ingredient</b><a name="1cdfb0bc-55f0-43ff-b750-8f3a0d9970bd"> </a></p><div style="display: inline-block; background-color: #d9e0e7; padding: 6px; margin: 4px; border: 1px solid #8da1b4; border-radius: 5px; line-height: 60%"><p style="margin-bottom: 0px">Resource Ingredient &quot;1cdfb0bc-55f0-43ff-b750-8f3a0d9970bd&quot; </p><p style="margin-bottom: 0px">Profile: <a href="StructureDefinition-Ingredient-uv-epi.html">Ingredient (ePI)</a></p></div><p><b>identifier</b>: id: OP1R32D61U (use: OFFICIAL)</p><p><b>status</b>: active</p><p><b>for</b>: <a href="#ManufacturedItemDefinition_3214f286-b8ec-4ef5-bc8d-0aec39d97468">See above (ManufacturedItemDefinition/3214f286-b8ec-4ef5-bc8d-0aec39d97468)</a></p><p><b>role</b>: inactive ingredient <span style="background: LightGoldenRodYellow; margin: 4px; border: 1px solid khaki"> (<a href="http://terminology.hl7.org/5.0.0/CodeSystem-v3-RoleClass.html">RoleClass</a>#IACT)</span></p><h3>Manufacturers</h3><table class="grid"><tr><td>-</td><td><b>Manufacturer</b></td></tr><tr><td>*</td><td><a href="#Organization_d71bf884-90eb-47f9-81b7-fa81ecec7e75">See above (Organization/d71bf884-90eb-47f9-81b7-fa81ecec7e75)</a></td></tr></table><blockquote><p><b>substance</b></p><h3>Codes</h3><table class="grid"><tr><td>-</td><td><b>Concept</b></td></tr><tr><td>*</td><td>Microcrystalline cellulose <span style="background: LightGoldenRodYellow; margin: 4px; border: 1px solid khaki"> (<a href="http://terminology.hl7.org/5.0.0/CodeSystem-UNII.html">Unique Ingredient Identifier (UNII)</a>#OP1R32D61U)</span></td></tr></table></blockquote></div>
        </text>
        <identifier>
          <use value="official"/>
          <system value="http://fdasis.nlm.nih.gov"/>
          <value value="OP1R32D61U"/>
        </identifier>
        <status value="active"/>
        <for>
          <reference value="ManufacturedItemDefinition/3214f286-b8ec-4ef5-bc8d-0aec39d97468"/>
        </for>
        <role>
          <coding>
            <system value="http://terminology.hl7.org/CodeSystem/v3-RoleClass"/>
            <code value="IACT"/>
          </coding>
          <text value="inactive ingredient"/>
        </role>
        <manufacturer>
          <manufacturer>
            <reference value="Organization/d71bf884-90eb-47f9-81b7-fa81ecec7e75"/>
          </manufacturer>
        </manufacturer>
        <substance>
          <code>
            <concept>
              <coding>
                <system value="http://fdasis.nlm.nih.gov"/>
                <code value="OP1R32D61U"/>
                <display value="Microcrystalline cellulose"/>
              </coding>
            </concept>
          </code>
        </substance>
      </Ingredient>
    </resource>
  </entry>
  <entry>
    <fullUrl value="urn:uuid:a88891dc-7e9e-4d84-b462-95e53de3b6a6"/>
    <resource>
      <Ingredient>
        <id value="a88891dc-7e9e-4d84-b462-95e53de3b6a6"/>
        <meta>
          <profile value="http://hl7.org/fhir/uv/emedicinal-product-info/StructureDefinition/Ingredient-uv-epi"/>
        </meta>
        <text>
          <status value="generated"/><div xmlns="http://www.w3.org/1999/xhtml"><p><b>Generated Narrative: Ingredient</b><a name="a88891dc-7e9e-4d84-b462-95e53de3b6a6"> </a></p><div style="display: inline-block; background-color: #d9e0e7; padding: 6px; margin: 4px; border: 1px solid #8da1b4; border-radius: 5px; line-height: 60%"><p style="margin-bottom: 0px">Resource Ingredient &quot;a88891dc-7e9e-4d84-b462-95e53de3b6a6&quot; </p><p style="margin-bottom: 0px">Profile: <a href="StructureDefinition-Ingredient-uv-epi.html">Ingredient (ePI)</a></p></div><p><b>identifier</b>: id: 15FIX9V2JP (use: OFFICIAL)</p><p><b>status</b>: active</p><p><b>for</b>: <a href="#ManufacturedItemDefinition_3214f286-b8ec-4ef5-bc8d-0aec39d97468">See above (ManufacturedItemDefinition/3214f286-b8ec-4ef5-bc8d-0aec39d97468)</a></p><p><b>role</b>: inactive ingredient <span style="background: LightGoldenRodYellow; margin: 4px; border: 1px solid khaki"> (<a href="http://terminology.hl7.org/5.0.0/CodeSystem-v3-RoleClass.html">RoleClass</a>#IACT)</span></p><h3>Manufacturers</h3><table class="grid"><tr><td>-</td><td><b>Manufacturer</b></td></tr><tr><td>*</td><td><a href="#Organization_d71bf884-90eb-47f9-81b7-fa81ecec7e75">See above (Organization/d71bf884-90eb-47f9-81b7-fa81ecec7e75)</a></td></tr></table><blockquote><p><b>substance</b></p><h3>Codes</h3><table class="grid"><tr><td>-</td><td><b>Concept</b></td></tr><tr><td>*</td><td>Titanium Dioxide <span style="background: LightGoldenRodYellow; margin: 4px; border: 1px solid khaki"> (<a href="http://terminology.hl7.org/5.0.0/CodeSystem-UNII.html">Unique Ingredient Identifier (UNII)</a>#15FIX9V2JP)</span></td></tr></table></blockquote></div>
        </text>
        <identifier>
          <use value="official"/>
          <system value="http://fdasis.nlm.nih.gov"/>
          <value value="15FIX9V2JP"/>
        </identifier>
        <status value="active"/>
        <for>
          <reference value="ManufacturedItemDefinition/3214f286-b8ec-4ef5-bc8d-0aec39d97468"/>
        </for>
        <role>
          <coding>
            <system value="http://terminology.hl7.org/CodeSystem/v3-RoleClass"/>
            <code value="IACT"/>
          </coding>
          <text value="inactive ingredient"/>
        </role>
        <manufacturer>
          <manufacturer>
            <reference value="Organization/d71bf884-90eb-47f9-81b7-fa81ecec7e75"/>
          </manufacturer>
        </manufacturer>
        <substance>
          <code>
            <concept>
              <coding>
                <system value="http://fdasis.nlm.nih.gov"/>
                <code value="15FIX9V2JP"/>
                <display value="Titanium Dioxide"/>
              </coding>
            </concept>
          </code>
        </substance>
      </Ingredient>
    </resource>
  </entry>
  <entry>
    <fullUrl value="urn:uuid:4e922ec1-a398-4a78-8381-3729422b7602"/>
    <resource>
      <ClinicalUseDefinition>
        <id value="4e922ec1-a398-4a78-8381-3729422b7602"/>
        <meta>
          <profile value="http://hl7.org/fhir/uv/emedicinal-product-info/StructureDefinition/ClinicalUseDefinition-indication-uv-epi"/>
        </meta>
        <text>
          <status value="generated"/><div xmlns="http://www.w3.org/1999/xhtml"><p><b>Generated Narrative: ClinicalUseDefinition</b><a name="4e922ec1-a398-4a78-8381-3729422b7602"> </a></p><div style="display: inline-block; background-color: #d9e0e7; padding: 6px; margin: 4px; border: 1px solid #8da1b4; border-radius: 5px; line-height: 60%"><p style="margin-bottom: 0px">Resource ClinicalUseDefinition &quot;4e922ec1-a398-4a78-8381-3729422b7602&quot; </p><p style="margin-bottom: 0px">Profile: <a href="StructureDefinition-ClinicalUseDefinition-indication-uv-epi.html">ClinicalUseDefinition Indication (ePI)</a></p></div><p><b>identifier</b>: id: Psoriasis (use: OFFICIAL)</p><p><b>type</b>: indication</p><p><b>subject</b>: <a href="#MedicinalProductDefinition_800a51a2-d81d-49a4-a4eb-f2417d301837">See above (MedicinalProductDefinition/800a51a2-d81d-49a4-a4eb-f2417d301837)</a></p><blockquote><p><b>indication</b></p><h3>DiseaseSymptomProcedures</h3><table class="grid"><tr><td>-</td><td><b>Concept</b></td></tr><tr><td>*</td><td>Hypertension <span style="background: LightGoldenRodYellow; margin: 4px; border: 1px solid khaki"> (<a href="http://terminology.hl7.org/5.0.0/CodeSystem-mdr.html">MedDRA</a>#10020772)</span></td></tr></table></blockquote></div>
        </text>
        <identifier>
          <use value="official"/>
          <system value="https://spor.ema.europa.eu/rmswi#"/>
          <value value="Psoriasis"/>
        </identifier>
        <type value="indication"/>
        <subject>
          <reference value="MedicinalProductDefinition/800a51a2-d81d-49a4-a4eb-f2417d301837"/>
        </subject>
        <indication>
          <diseaseSymptomProcedure>
            <concept>
              <coding>
                <system value="http://terminology.hl7.org/CodeSystem/mdr"/>
                <code value="10020772"/>
                <display value="Hypertension"/>
              </coding>
            </concept>
          </diseaseSymptomProcedure>
        </indication>
      </ClinicalUseDefinition>
    </resource>
  </entry>
  <entry>
    <fullUrl value="urn:uuid:83f4a22f-9e5e-4941-9fdb-339a0f1f2055"/>
    <resource>
      <ClinicalUseDefinition>
        <id value="83f4a22f-9e5e-4941-9fdb-339a0f1f2055"/>
        <meta>
          <profile value="http://hl7.org/fhir/uv/emedicinal-product-info/StructureDefinition/ClinicalUseDefinition-contraindication-uv-epi"/>
        </meta>
        <text>
          <status value="generated"/><div xmlns="http://www.w3.org/1999/xhtml"><p><b>Generated Narrative: ClinicalUseDefinition</b><a name="83f4a22f-9e5e-4941-9fdb-339a0f1f2055"> </a></p><div style="display: inline-block; background-color: #d9e0e7; padding: 6px; margin: 4px; border: 1px solid #8da1b4; border-radius: 5px; line-height: 60%"><p style="margin-bottom: 0px">Resource ClinicalUseDefinition &quot;83f4a22f-9e5e-4941-9fdb-339a0f1f2055&quot; </p><p style="margin-bottom: 0px">Profile: <a href="StructureDefinition-ClinicalUseDefinition-contraindication-uv-epi.html">ClinicalUseDefinition Contraindication (ePI)</a></p></div><p><b>identifier</b>: id: Gastrointestinal disorders (use: OFFICIAL)</p><p><b>type</b>: contraindication</p><p><b>subject</b>: <a href="#MedicinalProductDefinition_800a51a2-d81d-49a4-a4eb-f2417d301837">See above (MedicinalProductDefinition/800a51a2-d81d-49a4-a4eb-f2417d301837)</a></p><blockquote><p><b>contraindication</b></p><h3>DiseaseSymptomProcedures</h3><table class="grid"><tr><td>-</td><td><b>Concept</b></td></tr><tr><td>*</td><td>Diabetis Mellitus <span style="background: LightGoldenRodYellow; margin: 4px; border: 1px solid khaki"> (<a href="http://terminology.hl7.org/5.0.0/CodeSystem-mdr.html">MedDRA</a>#10012601)</span></td></tr></table></blockquote></div>
        </text>
        <identifier>
          <use value="official"/>
          <system value="https://spor.ema.europa.eu/rmswi#"/>
          <value value="Gastrointestinal disorders"/>
        </identifier>
        <type value="contraindication"/>
        <subject>
          <reference value="MedicinalProductDefinition/800a51a2-d81d-49a4-a4eb-f2417d301837"/>
        </subject>
        <contraindication>
          <diseaseSymptomProcedure>
            <concept>
              <coding>
                <system value="http://terminology.hl7.org/CodeSystem/mdr"/>
                <code value="10012601"/>
                <display value="Diabetis Mellitus"/>
              </coding>
            </concept>
          </diseaseSymptomProcedure>
        </contraindication>
      </ClinicalUseDefinition>
    </resource>
  </entry>
  <entry>
    <fullUrl value="urn:uuid:e60575aa-e7b3-4461-a456-d310514f4041"/>
    <resource>
      <ClinicalUseDefinition>
        <id value="e60575aa-e7b3-4461-a456-d310514f4041"/>
        <meta>
          <profile value="http://hl7.org/fhir/uv/emedicinal-product-info/StructureDefinition/ClinicalUseDefinition-interaction-uv-epi"/>
        </meta>
        <text>
          <status value="generated"/><div xmlns="http://www.w3.org/1999/xhtml"><p><b>Generated Narrative: ClinicalUseDefinition</b><a name="e60575aa-e7b3-4461-a456-d310514f4041"> </a></p><div style="display: inline-block; background-color: #d9e0e7; padding: 6px; margin: 4px; border: 1px solid #8da1b4; border-radius: 5px; line-height: 60%"><p style="margin-bottom: 0px">Resource ClinicalUseDefinition &quot;e60575aa-e7b3-4461-a456-d310514f4041&quot; </p><p style="margin-bottom: 0px">Profile: <a href="StructureDefinition-ClinicalUseDefinition-interaction-uv-epi.html">ClinicalUseDefinition Interaction (ePI)</a></p></div><p><b>identifier</b>: id: YL5FZ2Y5U1 (use: OFFICIAL)</p><p><b>type</b>: interaction</p><p><b>subject</b>: <a href="#MedicinalProductDefinition_800a51a2-d81d-49a4-a4eb-f2417d301837">See above (MedicinalProductDefinition/800a51a2-d81d-49a4-a4eb-f2417d301837)</a></p><blockquote><p><b>interaction</b></p><h3>Interactants</h3><table class="grid"><tr><td>-</td><td><b>Item[x]</b></td></tr><tr><td>*</td><td>METHOTREXATE <span style="background: LightGoldenRodYellow; margin: 4px; border: 1px solid khaki"> (#YL5FZ2Y5U1)</span></td></tr></table></blockquote></div>
        </text>
        <identifier>
          <use value="official"/>
          <system value="https://gsrs.ncats.nih.gov/ginas/app/beta"/>
          <value value="YL5FZ2Y5U1"/>
        </identifier>
        <type value="interaction"/>
        <subject>
          <reference value="MedicinalProductDefinition/800a51a2-d81d-49a4-a4eb-f2417d301837"/>
        </subject>
        <interaction>
          <interactant>
            <itemCodeableConcept>
              <coding>
                <system value="https://gsrs.ncats.nih.gov/ginas/app/beta/"/>
                <code value="YL5FZ2Y5U1"/>
              </coding>
              <text value="METHOTREXATE"/>
            </itemCodeableConcept>
          </interactant>
        </interaction>
      </ClinicalUseDefinition>
    </resource>
  </entry>
  <entry>
    <fullUrl value="urn:uuid:f7d8f2a0-27eb-4e37-8036-58f3d5aa6537"/>
    <resource>
      <ClinicalUseDefinition>
        <id value="f7d8f2a0-27eb-4e37-8036-58f3d5aa6537"/>
        <meta>
          <profile value="http://hl7.org/fhir/uv/emedicinal-product-info/StructureDefinition/ClinicalUseDefinition-interaction-uv-epi"/>
        </meta>
        <text>
          <status value="generated"/><div xmlns="http://www.w3.org/1999/xhtml"><p><b>Generated Narrative: ClinicalUseDefinition</b><a name="f7d8f2a0-27eb-4e37-8036-58f3d5aa6537"> </a></p><div style="display: inline-block; background-color: #d9e0e7; padding: 6px; margin: 4px; border: 1px solid #8da1b4; border-radius: 5px; line-height: 60%"><p style="margin-bottom: 0px">Resource ClinicalUseDefinition &quot;f7d8f2a0-27eb-4e37-8036-58f3d5aa6537&quot; </p><p style="margin-bottom: 0px">Profile: <a href="StructureDefinition-ClinicalUseDefinition-interaction-uv-epi.html">ClinicalUseDefinition Interaction (ePI)</a></p></div><p><b>identifier</b>: id: JQ9EK2H6BG (use: OFFICIAL)</p><p><b>type</b>: interaction</p><p><b>subject</b>: <a href="#MedicinalProductDefinition_800a51a2-d81d-49a4-a4eb-f2417d301837">See above (MedicinalProductDefinition/800a51a2-d81d-49a4-a4eb-f2417d301837)</a></p><blockquote><p><b>interaction</b></p><h3>Interactants</h3><table class="grid"><tr><td>-</td><td><b>Item[x]</b></td></tr><tr><td>*</td><td>GRAPEFRUIT JUICE <span style="background: LightGoldenRodYellow; margin: 4px; border: 1px solid khaki"> (#JQ9EK2H6BG)</span></td></tr></table></blockquote></div>
        </text>
        <identifier>
          <use value="official"/>
          <system value="https://gsrs.ncats.nih.gov/ginas/app/beta"/>
          <value value="JQ9EK2H6BG"/>
        </identifier>
        <type value="interaction"/>
        <subject>
          <reference value="MedicinalProductDefinition/800a51a2-d81d-49a4-a4eb-f2417d301837"/>
        </subject>
        <interaction>
          <interactant>
            <itemCodeableConcept>
              <coding>
                <system value="https://gsrs.ncats.nih.gov/ginas/app/beta/"/>
                <code value="JQ9EK2H6BG"/>
              </coding>
              <text value="GRAPEFRUIT JUICE"/>
            </itemCodeableConcept>
          </interactant>
        </interaction>
      </ClinicalUseDefinition>
    </resource>
  </entry>
  <entry>
    <fullUrl value="urn:uuid:ac21a804-cafa-41ff-b644-a14c8003edeb"/>
    <resource>
      <ClinicalUseDefinition>
        <id value="ac21a804-cafa-41ff-b644-a14c8003edeb"/>
        <meta>
          <profile value="http://hl7.org/fhir/uv/emedicinal-product-info/StructureDefinition/ClinicalUseDefinition-warning-uv-epi"/>
        </meta>
        <text>
          <status value="generated"/><div xmlns="http://www.w3.org/1999/xhtml"><p><b>Generated Narrative: ClinicalUseDefinition</b><a name="ac21a804-cafa-41ff-b644-a14c8003edeb"> </a></p><div style="display: inline-block; background-color: #d9e0e7; padding: 6px; margin: 4px; border: 1px solid #8da1b4; border-radius: 5px; line-height: 60%"><p style="margin-bottom: 0px">Resource ClinicalUseDefinition &quot;ac21a804-cafa-41ff-b644-a14c8003edeb&quot; </p><p style="margin-bottom: 0px">Profile: <a href="StructureDefinition-ClinicalUseDefinition-warning-uv-epi.html">ClinicalUseDefinition Warning (ePI)</a></p></div><p><b>identifier</b>: id: hypotension (use: OFFICIAL)</p><p><b>type</b>: warning</p><p><b>subject</b>: <a href="#MedicinalProductDefinition_800a51a2-d81d-49a4-a4eb-f2417d301837">See above (MedicinalProductDefinition/800a51a2-d81d-49a4-a4eb-f2417d301837)</a></p><h3>Warnings</h3><table class="grid"><tr><td>-</td><td><b>Description</b></td></tr><tr><td>*</td><td>Intravascular volume depletion: symptomatic hypotension, especially after the first dose, may occur in patients who are volume and/or sodium depleted by vigorous diuretic therapy, dietary salt restriction, diarrhoea or vomiting. Such conditions should be corrected before the administration of cava.</td></tr></table></div>
        </text>
        <identifier>
          <use value="official"/>
          <system value="https://spor.ema.europa.eu/rmswi#"/>
          <value value="hypotension"/>
        </identifier>
        <type value="warning"/>
        <subject>
          <reference value="MedicinalProductDefinition/800a51a2-d81d-49a4-a4eb-f2417d301837"/>
        </subject>
        <warning>
          <description value="Intravascular volume depletion: symptomatic hypotension, especially after the first dose, may occur in patients who are volume and/or sodium depleted by vigorous diuretic therapy, dietary salt restriction, diarrhoea or vomiting. Such conditions should be corrected before the administration of cava."/>
        </warning>
      </ClinicalUseDefinition>
    </resource>
  </entry>
  <entry>
    <fullUrl value="urn:uuid:da33bd51-a726-4232-aaa0-4168b9bfe249"/>
    <resource>
      <SubstanceDefinition>
        <id value="da33bd51-a726-4232-aaa0-4168b9bfe249"/>
        <meta>
          <profile value="http://hl7.org/fhir/uv/emedicinal-product-info/StructureDefinition/SubstanceDefinition-uv-epi"/>
        </meta>
        <text>
          <status value="generated"/><div xmlns="http://www.w3.org/1999/xhtml"><p><b>Generated Narrative: SubstanceDefinition</b><a name="da33bd51-a726-4232-aaa0-4168b9bfe249"> </a></p><div style="display: inline-block; background-color: #d9e0e7; padding: 6px; margin: 4px; border: 1px solid #8da1b4; border-radius: 5px; line-height: 60%"><p style="margin-bottom: 0px">Resource SubstanceDefinition &quot;da33bd51-a726-4232-aaa0-4168b9bfe249&quot; </p><p style="margin-bottom: 0px">Profile: <a href="StructureDefinition-SubstanceDefinition-uv-epi.html">SubstanceDefinition (ePI)</a></p></div><p><b>identifier</b>: id: J0E2756Z7N (use: OFFICIAL)</p><p><b>version</b>: 1</p><p><b>status</b>: Validated (UNII) <span style="background: LightGoldenRodYellow; margin: 4px; border: 1px solid khaki"> (#1)</span></p><p><b>description</b>: White to off-white, biconvex, and oval-shaped with a heart debossed on one side and the number 1234 engraved on the other side.</p><p><b>manufacturer</b>: <a href="#Organization_d71bf884-90eb-47f9-81b7-fa81ecec7e75">See above (Organization/d71bf884-90eb-47f9-81b7-fa81ecec7e75)</a></p><h3>MolecularWeights</h3><table class="grid"><tr><td>-</td><td><b>Type</b></td><td><b>Amount</b></td></tr><tr><td>*</td><td>exact <span style="background: LightGoldenRodYellow; margin: 4px; border: 1px solid khaki"> ()</span></td><td>428.53</td></tr></table><h3>Structures</h3><table class="grid"><tr><td>-</td><td><b>MolecularFormula</b></td></tr><tr><td>*</td><td>C25H28N6O</td></tr></table><h3>Names</h3><table class="grid"><tr><td>-</td><td><b>Name</b></td><td><b>Type</b></td></tr><tr><td>*</td><td>(+)-6-methyleneandrosta-1,4-diene-3,17-dione</td><td>Chemical Name <span style="background: LightGoldenRodYellow; margin: 4px; border: 1px solid khaki"> (#1)</span></td></tr></table></div>
        </text>
        <identifier>
          <use value="official"/>
          <system value="https://gsrs.ncats.nih.gov/ginas/app/beta"/>
          <value value="J0E2756Z7N"/>
        </identifier>
        <version value="1"/>
        <status>
          <coding>
            <system value="https://gsrs.ncats.nih.gov/ginas/app/beta/"/>
            <code value="1"/>
          </coding>
          <text value="Validated (UNII)"/>
        </status>
        <description value="White to off-white, biconvex, and oval-shaped with a heart debossed on one side and the number 1234 engraved on the other side."/>
        <manufacturer>
          <reference value="Organization/d71bf884-90eb-47f9-81b7-fa81ecec7e75"/>
        </manufacturer>
        <molecularWeight>
          <type>
            <text value="exact"/>
          </type>
          <amount>
            <value value="428.53"/>
          </amount>
        </molecularWeight>
        <structure>
          <molecularFormula value="C25H28N6O"/>
        </structure>
        <name>
          <name value="(+)-6-methyleneandrosta-1,4-diene-3,17-dione"/>
          <type>
            <coding>
              <system value="https://gsrs.ncats.nih.gov/ginas/app/beta/"/>
              <code value="1"/>
            </coding>
            <text value="Chemical Name"/>
          </type>
        </name>
      </SubstanceDefinition>
    </resource>
  </entry>
</Bundle>