<?xml version="1.0" encoding="UTF-8"?>

<Bundle xmlns="http://hl7.org/fhir">
  <id value="cfsb1641827801260"/>
  <meta>
    <profile value="http://hl7.eu/fhir/ig/gravitate-health/StructureDefinition/Bundle-uv-epi"/>
  </meta>
  <identifier>
    <system value="https://www.gravitatehealth.eu/sid/doc"/>
    <value value="EU/1/96/007/035"/>
  </identifier>
  <type value="document"/>
  <timestamp value="2018-06-23T08:38:00+02:00"/>
  <entry>
    <fullUrl value="urn:uuid:85d72429-82e2-4199-b9e3-2124d43455c1"/>
    <resource>
      <Composition>
        <id value="85d72429-82e2-4199-b9e3-2124d43455c1"/>
        <meta>
          <profile value="http://hl7.eu/fhir/ig/gravitate-health/StructureDefinition/Composition-uv-epi"/>
        </meta>
        <language value="en"/>
        <text>
          <status value="generated"/><div xmlns="http://www.w3.org/1999/xhtml" xml:lang="en" lang="en"><p><b>Generated Narrative</b></p><div style="display: inline-block; background-color: #d9e0e7; padding: 6px; margin: 4px; border: 1px solid #8da1b4; border-radius: 5px; line-height: 60%"><p style="margin-bottom: 0px">Resource "85d72429-82e2-4199-b9e3-2124d43455c1"  (Language "en") </p><p style="margin-bottom: 0px">Profile: <a href="StructureDefinition-Composition-uv-epi.html">Composition (ePI)</a></p></div><p><b>identifier</b>: id: humalog-comp-ex</p><p><b>status</b>: final</p><p><b>type</b>: Package Leaflet <span style="background: LightGoldenRodYellow; margin: 4px; border: 1px solid khaki"> (<a href="CodeSystem-CodeSystemUvEPIRrmswi.html">Referentials Management Services CodeSystem</a>#100000155538)</span></p><p><b>date</b>: 2015-02-07 01:28:17+0000</p><p><b>author</b>: <a href="#Organization_71dc2536-d675-4558-92a9-cc8a6342ab0f">See above (Organization/71dc2536-d675-4558-92a9-cc8a6342ab0f)</a></p><p><b>title</b>: TEST PURPOSES ONLY - Humalog Vulcan ePI</p><p><b>confidentiality</b>: U</p><h3>Attesters</h3><table class="grid"><tr><td>-</td><td><b>Mode</b></td><td><b>Time</b></td></tr><tr><td>*</td><td>Official <span style="background: LightGoldenRodYellow; margin: 4px; border: 1px solid khaki"> (<a href="http://build.fhir.org/codesystem-composition-attestation-mode.html">CompositionAttestationMode</a>#official)</span></td><td>2015-02-07 01:28:17+0000</td></tr></table></div>
        </text>
        <identifier>
          <system value="https://www.gravitatehealth.eu/sid/doc"/>
          <value value="humalog-comp-ex"/>
        </identifier>
        <status value="final"/>
        <type>
          <coding>
            <system value="https://spor.ema.europa.eu/rmswi"/>
            <code value="100000155538"/>
          </coding>
          <text value="Package Leaflet"/>
        </type>
        <subject>
          <reference value="List/4ab64267-c4a9-46e4-95c6-93907f62a9d6"/>
        </subject>
        <date value="2015-02-07T13:28:17Z"/>
        <author>
          <reference value="Organization/71dc2536-d675-4558-92a9-cc8a6342ab0f"/>
        </author>
        <title value="TEST PURPOSES ONLY - Humalog Vulcan ePI"/>
        <confidentiality value="U"/>
        <attester>
          <mode>
            <coding>
              <system value="http://hl7.org/fhir/composition-attestation-mode"/>
              <code value="official"/>
            </coding>
          </mode>
          <time value="2015-02-07T13:28:17Z"/>
        </attester>
        <section>
          <title value="B. Package Leaflet"/>
          <code>
            <coding>
              <system value="https://spor.ema.europa.eu/rmswi"/>
              <code value="100000155538"/>
              <display value="B. PACKAGE LEAFLET"/>
            </coding>
          </code>
          <text>
            <status value="additional"/><div xmlns="http://www.w3.org/1999/xhtml">PACKAGE LEAFLET: INFORMATION FOR THE USER Humalog Mix50 100 units/ml suspension for injection in cartridge insulin lispro Read all of this leaflet carefully before you start taking this medicine because it contains important information for you.<ul><li>Keep this leaflet. You may need to read it again.</li><li>If you have any further questions, ask your doctor or pharmacist.</li><li>This medicine has been prescribed for you only. Do not pass it on to others. It may harm them, even if their signs of illness are the same as yours.</li><li>If you get any side effects talk to your doctor or pharmacist. This includes any possible side effects not listed in this leaflet. See section 4.</li></ul></div>
          </text>
        </section>
        <section>
          <title value="What is in this leaflet"/>
          <code>
            <coding>
              <system value="https://spor.ema.europa.eu/rmswi"/>
              <code value="100000155538-0"/>
              <display value="B. PACKAGE LEAFLET"/>
            </coding>
          </code>
          <text>
            <status value="additional"/><div xmlns="http://www.w3.org/1999/xhtml">What in this leaflet<ol><li>What Humalog Mix50 is and what it is used for</li><li>What you need to know before you take Humalog Mix50</li><li>How to take Humalog Mix50</li><li>Possible side effects</li><li>How to store Humalog Mix50</li><li>Contents of the pack and other information</li></ol></div>
          </text>
        </section>
        <section>
          <title value="1. What Humalog Mix50 is and what it is used for"/>
          <code>
            <coding>
              <system value="https://spor.ema.europa.eu/rmswi"/>
              <code value="100000155538-1"/>
              <display value="B. PACKAGE LEAFLET"/>
            </coding>
          </code>
          <text>
            <status value="additional"/><div xmlns="http://www.w3.org/1999/xhtml"><b>1. What Humalog Mix50 is and what it is used for</b> Humalog Mix50 is used to treat diabetes. Humalog Mix50 is a premixed suspension. Its active substance is insulin lispro.</div>
          </text>
        </section>
        <section>
          <title value="2. What you need to know before you use Humalog Mix50"/>
          <code>
            <coding>
              <system value="https://spor.ema.europa.eu/rmswi"/>
              <code value="100000155538-2"/>
              <display value="B. PACKAGE LEAFLET"/>
            </coding>
          </code>
          <text>
            <status value="additional"/><div xmlns="http://www.w3.org/1999/xhtml"><b>2. What you need to know before you use Humalog Mix50</b> Do NOT use Humalog Mix50 if you</div>
          </text>
        </section>
        <section>
          <title value="3. How to use Humalog Mix50"/>
          <code>
            <coding>
              <system value="https://spor.ema.europa.eu/rmswi"/>
              <code value="100000155538-3"/>
              <display value="B. PACKAGE LEAFLET"/>
            </coding>
          </code>
          <text>
            <status value="additional"/><div xmlns="http://www.w3.org/1999/xhtml"><b>3. How to use Humalog Mix50</b> <b>The 3 ml cartridge is only for use in Lilly 3 ml pens. It is not for use in 1.5 ml pens.</b><p>Always use Humalog Mix50 exactly as your doctor has told you. You should check with your doctor if you are not sure. To prevent the possible transmission of disease, each cartridge must be used by you only, even if the needle on the delivery device is changed.</p></div>
          </text>
        </section>
        <section>
          <title value="4. Possible side effects"/>
          <code>
            <coding>
              <system value="https://spor.ema.europa.eu/rmswi"/>
              <code value="100000155538-4"/>
              <display value="B. PACKAGE LEAFLET"/>
            </coding>
          </code>
          <text>
            <status value="additional"/><div xmlns="http://www.w3.org/1999/xhtml"><p><b>4. Possible side effects</b></p><p>Like all medicines, this medicine can cause side effects, although not everybody gets them.</p></div>
          </text>
        </section>
        <section>
          <title value="5. How to store Humalog Mix50"/>
          <code>
            <coding>
              <system value="https://spor.ema.europa.eu/rmswi"/>
              <code value="100000155538-5"/>
              <display value="B. PACKAGE LEAFLET"/>
            </coding>
          </code>
          <text>
            <status value="additional"/><div xmlns="http://www.w3.org/1999/xhtml"><b>5. How to store Humalog Mix50</b><p>Before the first use store your Humalog Mix50 in a refrigerator (2°C – 8°C). Do not freeze.</p><p>Keep your cartridge in use at room temperature (below 30°C) and discard after 28 days. Do not put it near heat or in the sun. Do not keep your pen or the cartridges you are using in the fridge. The pen with the inserted cartridge should not be stored with the needle attached.</p><p>Keep out of the sight and reach of children. Do not use this medicine after the expiry date which is stated on the label and the carton. The expiry date refers to the last day of that month.</p><p>Do not use this medicine if you notice clumps of material are present or if solid white particles stick to the bottom or wall of the cartridge, giving it a frosted appearance. Check each time you inject yourself. Medicines should not be disposed of via wastewater or household waste. Ask your pharmacist how to dispose of medicines no longer required. These measures will help to protect the environment.</p></div>
          </text>
        </section>
        <section>
          <title value="6. Contents of the pack and other information"/>
          <code>
            <coding>
              <system value="https://spor.ema.europa.eu/rmswi"/>
              <code value="100000155538-6"/>
              <display value="B. PACKAGE LEAFLET"/>
            </coding>
          </code>
          <text>
            <status value="additional"/><div xmlns="http://www.w3.org/1999/xhtml"><b>6. Contents of the pack and other information</b> <b>What Humalog Mix50 100 units/ml suspension for injection in cartridge contains</b><p>The active substance is insulin lispro. Insulin lispro is made in the laboratory by a ‘recombinant DNA technology’ process. It is a changed form of human insulin and so is different from other human and animal insulins. Insulin lispro is closely related to human insulin which is a natural hormone made by the pancreas. The other ingredients are protamine sulphate, m-cresol, phenol, glycerol, dibasic sodium phosphate 7H2O, zinc oxide and water for injection. Sodium hydroxide or hydrochloric acid may have been used to adjust the acidity.</p></div>
          </text>
        </section>
      </Composition>
    </resource>
  </entry>
  <entry>
    <fullUrl value="urn:uuid:4ab64267-c4a9-46e4-95c6-93907f62a9d6"/>
    <resource>
      <List>
        <id value="4ab64267-c4a9-46e4-95c6-93907f62a9d6"/>
        <text>
          <status value="generated"/><div xmlns="http://www.w3.org/1999/xhtml"><p><b>Generated Narrative</b></p><div style="display: inline-block; background-color: #d9e0e7; padding: 6px; margin: 4px; border: 1px solid #8da1b4; border-radius: 5px; line-height: 60%"><p style="margin-bottom: 0px">Resource "4ab64267-c4a9-46e4-95c6-93907f62a9d6" </p></div><p><b>identifier</b>: id: EU/1/96/007/035</p><p><b>status</b>: current</p><p><b>mode</b>: working</p><p><b>title</b>: Vulcan Humalog FHIR Product List</p><h3>Entries</h3><table class="grid"><tr><td>-</td><td><b>Item</b></td></tr><tr><td>*</td><td><a href="#MedicinalProductDefinition_fb3d4c9b-3abe-4ef4-9ef8-73dcd1059258">See above (MedicinalProductDefinition/fb3d4c9b-3abe-4ef4-9ef8-73dcd1059258)</a></td></tr></table></div>
        </text>
        <identifier>
          <system value="https://www.gravitatehealth.eu/sid/list"/>
          <value value="EU/1/96/007/035"/>
        </identifier>
        <status value="current"/>
        <mode value="working"/>
        <title value="Vulcan Humalog FHIR Product List"/>
        <entry>
          <item>
            <reference value="MedicinalProductDefinition/fb3d4c9b-3abe-4ef4-9ef8-73dcd1059258"/>
          </item>
        </entry>
      </List>
    </resource>
  </entry>
  <entry>
    <fullUrl value="urn:uuid:71dc2536-d675-4558-92a9-cc8a6342ab0f"/>
    <resource>
      <Organization>
        <id value="71dc2536-d675-4558-92a9-cc8a6342ab0f"/>
        <meta>
          <profile value="http://hl7.eu/fhir/ig/gravitate-health/StructureDefinition/Organization-uv-epi"/>
        </meta>
        <text>
          <status value="generated"/><div xmlns="http://www.w3.org/1999/xhtml"><p><b>Generated Narrative</b></p><div style="display: inline-block; background-color: #d9e0e7; padding: 6px; margin: 4px; border: 1px solid #8da1b4; border-radius: 5px; line-height: 60%"><p style="margin-bottom: 0px">Resource "71dc2536-d675-4558-92a9-cc8a6342ab0f" </p><p style="margin-bottom: 0px">Profile: <a href="StructureDefinition-Organization-uv-epi.html">Organization (ePI)</a></p></div><p><b>identifier</b>: id: ORG-100000426 (OFFICIAL)</p><p><b>active</b>: true</p><p><b>type</b>: Marketing authorisation holder <span style="background: LightGoldenRodYellow; margin: 4px; border: 1px solid khaki"> (#220000000034)</span></p><p><b>name</b>: Eli Lilly Nederland B.V.</p><p><b>address</b>: Papendorpseweg 83, 3528 BJ Utrecht  The Netherlands(WORK)</p></div>
        </text>
        <identifier>
          <use value="official"/>
          <system value="https://spor.ema.europa.eu/omswi/"/>
          <value value="ORG-100000426"/>
        </identifier>
        <active value="true"/>
        <type>
          <coding>
            <system value="https://spor.ema.europa.eu/rmswi/"/>
            <code value="220000000034"/>
            <display value="Marketing authorisation holder"/>
          </coding>
          <text value="Marketing authorisation holder"/>
        </type>
        <name value="Eli Lilly Nederland B.V."/>
        <address>
          <use value="work"/>
          <type value="physical"/>
          <text value="Papendorpseweg 83, 3528 BJ Utrecht  The Netherlands"/>
          <line value="Papendorpseweg 83, 3528 BJ"/>
          <city value="Utrecht"/>
          <country value="NL"/>
        </address>
      </Organization>
    </resource>
  </entry>
  <entry>
    <fullUrl value="urn:uuid:02108a99-0146-4b46-ae72-44e35ca682fc"/>
    <resource>
      <Organization>
        <id value="02108a99-0146-4b46-ae72-44e35ca682fc"/>
        <meta>
          <profile value="http://hl7.eu/fhir/ig/gravitate-health/StructureDefinition/Organization-uv-epi"/>
        </meta>
        <text>
          <status value="generated"/><div xmlns="http://www.w3.org/1999/xhtml"><p><b>Generated Narrative</b></p><div style="display: inline-block; background-color: #d9e0e7; padding: 6px; margin: 4px; border: 1px solid #8da1b4; border-radius: 5px; line-height: 60%"><p style="margin-bottom: 0px">Resource "02108a99-0146-4b46-ae72-44e35ca682fc" </p><p style="margin-bottom: 0px">Profile: <a href="StructureDefinition-Organization-uv-epi.html">Organization (ePI)</a></p></div><p><b>identifier</b>: id: ORG-100000156 (OFFICIAL)</p><p><b>active</b>: true</p><p><b>type</b>: Manufacturer API <span style="background: LightGoldenRodYellow; margin: 4px; border: 1px solid khaki"> (<a href="CodeSystem-CodeSystemUvEPIRrmswi.html">Referentials Management Services CodeSystem</a>#220000000033)</span></p><p><b>name</b>: Eli Lilly and Company</p><p><b>address</b>: Lilly Technology Center Building 333 and 324(WORK)</p></div>
        </text>
        <identifier>
          <use value="official"/>
          <system value="https://spor.ema.europa.eu/omswi/#/"/>
          <value value="ORG-100000156"/>
        </identifier>
        <active value="true"/>
        <type>
          <coding>
            <system value="https://spor.ema.europa.eu/rmswi"/>
            <code value="220000000033"/>
          </coding>
          <text value="Manufacturer API"/>
        </type>
        <name value="Eli Lilly and Company"/>
        <address>
          <use value="work"/>
          <type value="physical"/>
          <text value="Lilly Technology Center Building 333 and 324"/>
          <line value="Lilly Technology Center Building 333 and 324,  Indianapolis, Indiana,  USA"/>
          <city value="Indianapolis"/>
          <country value="US"/>
        </address>
      </Organization>
    </resource>
  </entry>
  <entry>
    <fullUrl value="urn:uuid:1a2b1f1d-5e6c-40cd-96a1-ee4183243de8"/>
    <resource>
      <Organization>
        <id value="1a2b1f1d-5e6c-40cd-96a1-ee4183243de8"/>
        <meta>
          <profile value="http://hl7.eu/fhir/ig/gravitate-health/StructureDefinition/Organization-uv-epi"/>
        </meta>
        <text>
          <status value="generated"/><div xmlns="http://www.w3.org/1999/xhtml"><p><b>Generated Narrative</b></p><div style="display: inline-block; background-color: #d9e0e7; padding: 6px; margin: 4px; border: 1px solid #8da1b4; border-radius: 5px; line-height: 60%"><p style="margin-bottom: 0px">Resource "1a2b1f1d-5e6c-40cd-96a1-ee4183243de8" </p><p style="margin-bottom: 0px">Profile: <a href="StructureDefinition-Organization-uv-epi.html">Organization (ePI)</a></p></div><p><b>identifier</b>: id: ORG-100003996 (OFFICIAL)</p><p><b>active</b>: true</p><p><b>type</b>: manufacturer <span style="background: LightGoldenRodYellow; margin: 4px; border: 1px solid khaki"> (<a href="CodeSystem-CodeSystemUvEPIRrmswi.html">Referentials Management Services CodeSystem</a>#220000000033)</span></p><p><b>name</b>: Lilly S.A.</p><p><b>address</b>: Avenida de la Industria 30(WORK)</p></div>
        </text>
        <identifier>
          <use value="official"/>
          <system value="https://spor.ema.europa.eu/omswi/"/>
          <value value="ORG-100003996"/>
        </identifier>
        <active value="true"/>
        <type>
          <coding>
            <system value="https://spor.ema.europa.eu/rmswi"/>
            <code value="220000000033"/>
          </coding>
          <text value="manufacturer"/>
        </type>
        <name value="Lilly S.A."/>
        <address>
          <use value="work"/>
          <type value="physical"/>
          <text value="Avenida de la Industria 30"/>
          <line value="Avenida de la Industria 30, 28108 Alcobendas, Madrid, Spain"/>
          <city value="Alcobendas"/>
          <country value="ES"/>
        </address>
      </Organization>
    </resource>
  </entry>
  <entry>
    <fullUrl value="urn:uuid:7ba46499-f770-41fb-86d9-f6eaa11c0921"/>
    <resource>
      <RegulatedAuthorization>
        <id value="7ba46499-f770-41fb-86d9-f6eaa11c0921"/>
        <meta>
          <profile value="http://hl7.eu/fhir/ig/gravitate-health/StructureDefinition/RegulatedAuthorization-uv-epi"/>
        </meta>
        <text>
          <status value="generated"/><div xmlns="http://www.w3.org/1999/xhtml"><p><b>Generated Narrative</b></p><div style="display: inline-block; background-color: #d9e0e7; padding: 6px; margin: 4px; border: 1px solid #8da1b4; border-radius: 5px; line-height: 60%"><p style="margin-bottom: 0px">Resource "7ba46499-f770-41fb-86d9-f6eaa11c0921" </p><p style="margin-bottom: 0px">Profile: <a href="StructureDefinition-RegulatedAuthorization-uv-epi.html">RegulatedAuthorization (ePI)</a></p></div><p><b>identifier</b>: id: EU/1/96/007/035 (OFFICIAL)</p><p><b>subject</b>: <a href="#MedicinalProductDefinition_fb3d4c9b-3abe-4ef4-9ef8-73dcd1059258">See above (MedicinalProductDefinition/fb3d4c9b-3abe-4ef4-9ef8-73dcd1059258)</a></p><p><b>type</b>: Marketing Authorisation <span style="background: LightGoldenRodYellow; margin: 4px; border: 1px solid khaki"> (<a href="CodeSystem-CodeSystemUvEPIRrmswi.html">Referentials Management Services CodeSystem</a>#100000072062)</span></p><p><b>region</b>: European Union <span style="background: LightGoldenRodYellow; margin: 4px; border: 1px solid khaki"> (unknown#eu)</span></p><p><b>status</b>: Active <span style="background: LightGoldenRodYellow; margin: 4px; border: 1px solid khaki"> (<a href="http://build.fhir.org/codesystem-publication-status.html">PublicationStatus</a>#active)</span></p><p><b>statusDate</b>: 2015-02-07 01:28:17+0000</p><p><b>holder</b>: <a href="#Organization_71dc2536-d675-4558-92a9-cc8a6342ab0f">See above (Organization/71dc2536-d675-4558-92a9-cc8a6342ab0f)</a></p></div>
        </text>
        <identifier>
          <use value="official"/>
          <system value="http://ema.europa.eu/fhir/marketingAuthorizationNumber"/>
          <value value="EU/1/96/007/035"/>
        </identifier>
        <subject>
          <reference value="MedicinalProductDefinition/fb3d4c9b-3abe-4ef4-9ef8-73dcd1059258"/>
        </subject>
        <type>
          <coding>
            <system value="https://spor.ema.europa.eu/rmswi"/>
            <code value="100000072062"/>
            <display value="Marketing Authorisation"/>
          </coding>
        </type>
        <region>
          <coding>
            <system value="urn:iso:std:iso:3166"/>
            <code value="eu"/>
            <display value="European Union"/>
          </coding>
        </region>
        <status>
          <coding>
            <system value="http://hl7.org/fhir/publication-status"/>
            <code value="active"/>
            <display value="Active"/>
          </coding>
        </status>
        <statusDate value="2015-02-07T13:28:17Z"/>
        <holder>
          <reference value="Organization/71dc2536-d675-4558-92a9-cc8a6342ab0f"/>
        </holder>
      </RegulatedAuthorization>
    </resource>
  </entry>
  <entry>
    <fullUrl value="urn:uuid:fb3d4c9b-3abe-4ef4-9ef8-73dcd1059258"/>
    <resource>
      <MedicinalProductDefinition>
        <id value="fb3d4c9b-3abe-4ef4-9ef8-73dcd1059258"/>
        <meta>
          <profile value="http://hl7.eu/fhir/ig/gravitate-health/StructureDefinition/MedicinalProductDefinition-uv-epi"/>
        </meta>
        <text>
          <status value="generated"/><div xmlns="http://www.w3.org/1999/xhtml"><p><b>Generated Narrative</b></p><div style="display: inline-block; background-color: #d9e0e7; padding: 6px; margin: 4px; border: 1px solid #8da1b4; border-radius: 5px; line-height: 60%"><p style="margin-bottom: 0px">Resource "fb3d4c9b-3abe-4ef4-9ef8-73dcd1059258" </p><p style="margin-bottom: 0px">Profile: <a href="StructureDefinition-MedicinalProductDefinition-uv-epi.html">MedicinalProductDefinition (ePI)</a></p></div><p><b>identifier</b>: id: 13884911000001102</p><p><b>type</b>: Marketing Authorisation <span style="background: LightGoldenRodYellow; margin: 4px; border: 1px solid khaki"> (<a href="CodeSystem-CodeSystemUvEPIRrmswi.html">Referentials Management Services CodeSystem</a>#100000072062)</span></p><p><b>domain</b>: Human use <span style="background: LightGoldenRodYellow; margin: 4px; border: 1px solid khaki"> (<a href="CodeSystem-CodeSystemUvEPIRrmswi.html">Referentials Management Services CodeSystem</a>#100000000012)</span></p><p><b>status</b>: Active <span style="background: LightGoldenRodYellow; margin: 4px; border: 1px solid khaki"> (<a href="http://build.fhir.org/codesystem-publication-status.html">PublicationStatus</a>#active)</span></p><p><b>legalStatusOfSupply</b>: Medicinal product subject to medical prescription <span style="background: LightGoldenRodYellow; margin: 4px; border: 1px solid khaki"> (<a href="CodeSystem-CodeSystemUvEPIRrmswi.html">Referentials Management Services CodeSystem</a>#100000072084)</span></p><p><b>classification</b>: insulin lispro <span style="background: LightGoldenRodYellow; margin: 4px; border: 1px solid khaki"> (<a href="http://terminology.hl7.org/3.0.0/CodeSystem-atc.html">WHO ATC</a>#A10AD04)</span></p><blockquote><p><b>name</b></p><p><b>productName</b>: Humalog Mix50 Insulin KwikPen, 3ml pre-fill</p><p><b>type</b>: Full name <span style="background: LightGoldenRodYellow; margin: 4px; border: 1px solid khaki"> (<a href="CodeSystem-CodeSystemUvEPIRrmswi.html">Referentials Management Services CodeSystem</a>#220000000001)</span></p><h3>NameParts</h3><table class="grid"><tr><td>-</td><td><b>Part</b></td><td><b>Type</b></td></tr><tr><td>*</td><td>Suspension for injection</td><td>Pharmaceutical dose form part <span style="background: LightGoldenRodYellow; margin: 4px; border: 1px solid khaki"> (<a href="CodeSystem-CodeSystemUvEPIRrmswi.html">Referentials Management Services CodeSystem</a>#220000000005)</span></td></tr></table><h3>CountryLanguages</h3><table class="grid"><tr><td>-</td><td><b>Country</b></td><td><b>Jurisdiction</b></td><td><b>Language</b></td></tr><tr><td>*</td><td>European Union <span style="background: LightGoldenRodYellow; margin: 4px; border: 1px solid khaki"> (unknown#eu)</span></td><td>European Union <span style="background: LightGoldenRodYellow; margin: 4px; border: 1px solid khaki"> (unknown#eu)</span></td><td>English <span style="background: LightGoldenRodYellow; margin: 4px; border: 1px solid khaki"> (<a href="http://terminology.hl7.org/3.0.0/CodeSystem-v3-ietf3066.html">Tags for the Identification of Languages</a>#en)</span></td></tr></table></blockquote></div>
        </text>
        <identifier>
          <system value="http://snomed.info/sct/83821000000107"/>
          <value value="13884911000001102"/>
        </identifier>
        <type>
          <coding>
            <system value="https://spor.ema.europa.eu/rmswi"/>
            <code value="100000072062"/>
          </coding>
          <text value="Marketing Authorisation"/>
        </type>
        <domain>
          <coding>
            <system value="https://spor.ema.europa.eu/rmswi"/>
            <code value="100000000012"/>
          </coding>
          <text value="Human use"/>
        </domain>
        <status>
          <coding>
            <system value="http://hl7.org/fhir/publication-status"/>
            <code value="active"/>
            <display value="Active"/>
          </coding>
        </status>
        <legalStatusOfSupply>
          <coding>
            <system value="https://spor.ema.europa.eu/rmswi"/>
            <code value="100000072084"/>
          </coding>
          <text value="Medicinal product subject to medical prescription"/>
        </legalStatusOfSupply>
        <classification>
          <coding>
            <system value="http://www.whocc.no/atc"/>
            <code value="A10AD04"/>
            <display value="insulin lispro"/>
          </coding>
        </classification>
        <name>
          <productName value="Humalog Mix50 Insulin KwikPen, 3ml pre-fill"/>
          <type>
            <coding>
              <system value="https://spor.ema.europa.eu/rmswi"/>
              <code value="220000000001"/>
            </coding>
            <text value="Full name"/>
          </type>
          <namePart>
            <part value="Suspension for injection"/>
            <type>
              <coding>
                <system value="https://spor.ema.europa.eu/rmswi"/>
                <code value="220000000005"/>
              </coding>
              <text value="Pharmaceutical dose form part"/>
            </type>
          </namePart>
          <countryLanguage>
            <country>
              <coding>
                <system value="urn:iso:std:iso:3166"/>
                <code value="eu"/>
              </coding>
              <text value="European Union"/>
            </country>
            <jurisdiction>
              <coding>
                <system value="urn:iso:std:iso:3166"/>
                <code value="eu"/>
              </coding>
              <text value="European Union"/>
            </jurisdiction>
            <language>
              <coding>
                <system value="urn:ietf:bcp:47"/>
                <code value="en"/>
              </coding>
              <text value="English"/>
            </language>
          </countryLanguage>
        </name>
      </MedicinalProductDefinition>
    </resource>
  </entry>
  <entry>
    <fullUrl value="urn:uuid:c9a02053-149d-48b9-beb8-f7cd3cf1fdd9"/>
    <resource>
      <PackagedProductDefinition>
        <id value="c9a02053-149d-48b9-beb8-f7cd3cf1fdd9"/>
        <meta>
          <profile value="http://hl7.eu/fhir/ig/gravitate-health/StructureDefinition/PackagedProductDefinition-uv-epi"/>
        </meta>
        <text>
          <status value="generated"/><div xmlns="http://www.w3.org/1999/xhtml"><p><b>Generated Narrative</b></p><div style="display: inline-block; background-color: #d9e0e7; padding: 6px; margin: 4px; border: 1px solid #8da1b4; border-radius: 5px; line-height: 60%"><p style="margin-bottom: 0px">Resource "c9a02053-149d-48b9-beb8-f7cd3cf1fdd9" </p><p style="margin-bottom: 0px">Profile: <a href="StructureDefinition-PackagedProductDefinition-uv-epi.html">PackagedProductDefinition (ePI)</a></p></div><p><b>identifier</b>: id: 13884911000001102 (OFFICIAL)</p><p><b>name</b>: Humalog 100 units/ml KwikPen solution for injection in a pre-filled pen</p><p><b>type</b>: Chemical Medininal Prodcut <span style="background: LightGoldenRodYellow; margin: 4px; border: 1px solid khaki"> (<a href="CodeSystem-CodeSystemUvEPIRrmswi.html">Referentials Management Services CodeSystem</a>#100000155527)</span></p><p><b>packageFor</b>: <a href="#MedicinalProductDefinition_fb3d4c9b-3abe-4ef4-9ef8-73dcd1059258">See above (MedicinalProductDefinition/fb3d4c9b-3abe-4ef4-9ef8-73dcd1059258)</a></p><p><b>status</b>: Active <span style="background: LightGoldenRodYellow; margin: 4px; border: 1px solid khaki"> (<a href="http://build.fhir.org/codesystem-publication-status.html">PublicationStatus</a>#active)</span></p><p><b>statusDate</b>: 2015-02-07 01:28:17+0000</p><p><b>containedItemQuantity</b>: 3 ml</p><p><b>manufacturer</b>: </p><ul><li><a href="#Organization_1a2b1f1d-5e6c-40cd-96a1-ee4183243de8">See above (Organization/1a2b1f1d-5e6c-40cd-96a1-ee4183243de8)</a></li><li><a href="#Organization_02108a99-0146-4b46-ae72-44e35ca682fc">See above (Organization/02108a99-0146-4b46-ae72-44e35ca682fc)</a></li></ul><h3>Packages</h3><table class="grid"><tr><td>-</td><td><b>Identifier</b></td><td><b>Type</b></td><td><b>Quantity</b></td><td><b>Material</b></td></tr><tr><td>*</td><td>id: 5014602101435</td><td>Pre-filled pen <span style="background: LightGoldenRodYellow; margin: 4px; border: 1px solid khaki"> (<a href="CodeSystem-CodeSystemUvEPIRrmswi.html">Referentials Management Services CodeSystem</a>#100000073543)</span></td><td>5</td><td>Glass type 1 <span style="background: LightGoldenRodYellow; margin: 4px; border: 1px solid khaki"> (<a href="CodeSystem-CodeSystemUvEPIRrmswi.html">Referentials Management Services CodeSystem</a>#200000003204)</span></td></tr></table></div>
        </text>
        <identifier>
          <use value="official"/>
          <system value="http://snomed.info/sct/83821000000107"/>
          <value value="13884911000001102"/>
        </identifier>
        <name value="Humalog 100 units/ml KwikPen solution for injection in a pre-filled pen"/>
        <type>
          <coding>
            <system value="https://spor.ema.europa.eu/rmswi"/>
            <code value="100000155527"/>
            <display value="Chemical Medininal Prodcut"/>
          </coding>
        </type>
        <packageFor>
          <reference value="MedicinalProductDefinition/fb3d4c9b-3abe-4ef4-9ef8-73dcd1059258"/>
        </packageFor>
        <status>
          <coding>
            <system value="http://hl7.org/fhir/publication-status"/>
            <code value="active"/>
            <display value="Active"/>
          </coding>
        </status>
        <statusDate value="2015-02-07T13:28:17Z"/>
        <containedItemQuantity>
          <value value="3"/>
          <unit value="ml"/>
        </containedItemQuantity>
        <manufacturer>
          <reference value="Organization/1a2b1f1d-5e6c-40cd-96a1-ee4183243de8"/>
        </manufacturer>
        <manufacturer>
          <reference value="Organization/02108a99-0146-4b46-ae72-44e35ca682fc"/>
        </manufacturer>
        <package>
          <identifier>
            <system value="https://www.gs1.org/gtin"/>
            <value value="5014602101435"/>
          </identifier>
          <type>
            <coding>
              <system value="https://spor.ema.europa.eu/rmswi"/>
              <code value="100000073543"/>
              <display value="Pre-filled pen"/>
            </coding>
          </type>
          <quantity value="5"/>
          <material>
            <coding>
              <system value="https://spor.ema.europa.eu/rmswi"/>
              <code value="200000003204"/>
              <display value="Glass type 1"/>
            </coding>
          </material>
        </package>
      </PackagedProductDefinition>
    </resource>
  </entry>
  <entry>
    <fullUrl value="urn:uuid:f38a9470-24db-4d2a-b5ea-cace3e38db63"/>
    <resource>
      <AdministrableProductDefinition>
        <id value="f38a9470-24db-4d2a-b5ea-cace3e38db63"/>
        <meta>
          <profile value="http://hl7.eu/fhir/ig/gravitate-health/StructureDefinition/AdministrableProductDefinition-uv-epi"/>
        </meta>
        <text>
          <status value="generated"/><div xmlns="http://www.w3.org/1999/xhtml"><p><b>Generated Narrative</b></p><div style="display: inline-block; background-color: #d9e0e7; padding: 6px; margin: 4px; border: 1px solid #8da1b4; border-radius: 5px; line-height: 60%"><p style="margin-bottom: 0px">Resource "f38a9470-24db-4d2a-b5ea-cace3e38db63" </p><p style="margin-bottom: 0px">Profile: <a href="StructureDefinition-AdministrableProductDefinition-uv-epi.html">AdministrableProductDefinition (ePI)</a></p></div><p><b>identifier</b>: id: 0x073AF2E5B92AE19E8B67635AFFB3D6CA</p><p><b>status</b>: active</p><p><b>formOf</b>: <a href="#MedicinalProductDefinition_fb3d4c9b-3abe-4ef4-9ef8-73dcd1059258">See above (MedicinalProductDefinition/fb3d4c9b-3abe-4ef4-9ef8-73dcd1059258)</a></p><p><b>administrableDoseForm</b>: Suspension for injection <span style="background: LightGoldenRodYellow; margin: 4px; border: 1px solid khaki"> (<a href="CodeSystem-CodeSystemUvEPIRrmswi.html">Referentials Management Services CodeSystem</a>#100000073864)</span></p><p><b>unitOfPresentation</b>: Pen <span style="background: LightGoldenRodYellow; margin: 4px; border: 1px solid khaki"> (<a href="CodeSystem-CodeSystemUvEPIRrmswi.html">Referentials Management Services CodeSystem</a>#200000002135)</span></p><p><b>producedFrom</b>: <a href="#ManufacturedItemDefinition_cfd35737-9e60-4604-9132-717615cfaf4c">See above (ManufacturedItemDefinition/cfd35737-9e60-4604-9132-717615cfaf4c)</a></p><blockquote><p><b>routeOfAdministration</b></p><p><b>code</b>: Subcutaneous use <span style="background: LightGoldenRodYellow; margin: 4px; border: 1px solid khaki"> (<a href="CodeSystem-CodeSystemUvEPIRrmswi.html">Referentials Management Services CodeSystem</a>#100000073633)</span></p><h3>TargetSpecies</h3><table class="grid"><tr><td>-</td><td><b>Code</b></td></tr><tr><td>*</td><td>Human <span style="background: LightGoldenRodYellow; margin: 4px; border: 1px solid khaki"> (<a href="CodeSystem-CodeSystemUvEPIRrmswi.html">Referentials Management Services CodeSystem</a>#100000109093)</span></td></tr></table></blockquote></div>
        </text>
        <identifier>
          <system value="https://www.who-umc.org/phpid"/>
          <value value="0x073AF2E5B92AE19E8B67635AFFB3D6CA"/>
        </identifier>
        <status value="active"/>
        <formOf>
          <reference value="MedicinalProductDefinition/fb3d4c9b-3abe-4ef4-9ef8-73dcd1059258"/>
        </formOf>
        <administrableDoseForm>
          <coding>
            <system value="https://spor.ema.europa.eu/rmswi"/>
            <code value="100000073864"/>
          </coding>
          <text value="Suspension for injection"/>
        </administrableDoseForm>
        <unitOfPresentation>
          <coding>
            <system value="https://spor.ema.europa.eu/rmswi"/>
            <code value="200000002135"/>
          </coding>
          <text value="Pen"/>
        </unitOfPresentation>
        <producedFrom>
          <reference value="ManufacturedItemDefinition/cfd35737-9e60-4604-9132-717615cfaf4c"/>
        </producedFrom>
        <routeOfAdministration>
          <code>
            <coding>
              <system value="https://spor.ema.europa.eu/rmswi"/>
              <code value="100000073633"/>
            </coding>
            <text value="Subcutaneous use"/>
          </code>
          <targetSpecies>
            <code>
              <coding>
                <system value="https://spor.ema.europa.eu/rmswi"/>
                <code value="100000109093"/>
              </coding>
              <text value="Human"/>
            </code>
          </targetSpecies>
        </routeOfAdministration>
      </AdministrableProductDefinition>
    </resource>
  </entry>
  <entry>
    <fullUrl value="urn:uuid:cfd35737-9e60-4604-9132-717615cfaf4c"/>
    <resource>
      <ManufacturedItemDefinition>
        <id value="cfd35737-9e60-4604-9132-717615cfaf4c"/>
        <meta>
          <profile value="http://hl7.eu/fhir/ig/gravitate-health/StructureDefinition/ManufacturedItemDefinition-uv-epi"/>
        </meta>
        <text>
          <status value="generated"/><div xmlns="http://www.w3.org/1999/xhtml"><p><b>Generated Narrative</b></p><div style="display: inline-block; background-color: #d9e0e7; padding: 6px; margin: 4px; border: 1px solid #8da1b4; border-radius: 5px; line-height: 60%"><p style="margin-bottom: 0px">Resource "cfd35737-9e60-4604-9132-717615cfaf4c" </p><p style="margin-bottom: 0px">Profile: <a href="StructureDefinition-ManufacturedItemDefinition-uv-epi.html">ManufacturedItemDefinition (ePI)</a></p></div><p><b>identifier</b>: id: EU/1/96/007/035 (OFFICIAL)</p><p><b>status</b>: active</p><p><b>manufacturedDoseForm</b>: Suspension for injection <span style="background: LightGoldenRodYellow; margin: 4px; border: 1px solid khaki"> (#100000073864)</span></p><p><b>unitOfPresentation</b>: Pen <span style="background: LightGoldenRodYellow; margin: 4px; border: 1px solid khaki"> (<a href="CodeSystem-CodeSystemUvEPIRrmswi.html">Referentials Management Services CodeSystem</a>#200000002135)</span></p><p><b>manufacturer</b>: <a href="#Organization_1a2b1f1d-5e6c-40cd-96a1-ee4183243de8">See above (Organization/1a2b1f1d-5e6c-40cd-96a1-ee4183243de8)</a></p></div>
        </text>
        <identifier>
          <use value="official"/>
          <system value="https://spor.ema.europa.eu/pmswi/#/"/>
          <value value="EU/1/96/007/035"/>
        </identifier>
        <status value="active"/>
        <manufacturedDoseForm>
          <coding>
            <system value="https://spor.ema.europa.eu/rmswi/"/>
            <code value="100000073864"/>
          </coding>
          <text value="Suspension for injection"/>
        </manufacturedDoseForm>
        <unitOfPresentation>
          <coding>
            <system value="https://spor.ema.europa.eu/rmswi"/>
            <code value="200000002135"/>
          </coding>
          <text value="Pen"/>
        </unitOfPresentation>
        <manufacturer>
          <reference value="Organization/1a2b1f1d-5e6c-40cd-96a1-ee4183243de8"/>
        </manufacturer>
      </ManufacturedItemDefinition>
    </resource>
  </entry>
  <entry>
    <fullUrl value="urn:uuid:b4c4de8c-c991-4771-bd28-557e2b98d67f"/>
    <resource>
      <Ingredient>
        <id value="b4c4de8c-c991-4771-bd28-557e2b98d67f"/>
        <meta>
          <profile value="http://hl7.eu/fhir/ig/gravitate-health/StructureDefinition/Ingredient-uv-epi"/>
        </meta>
        <text>
          <status value="generated"/><div xmlns="http://www.w3.org/1999/xhtml"><p><b>Generated Narrative</b></p><div style="display: inline-block; background-color: #d9e0e7; padding: 6px; margin: 4px; border: 1px solid #8da1b4; border-radius: 5px; line-height: 60%"><p style="margin-bottom: 0px">Resource "b4c4de8c-c991-4771-bd28-557e2b98d67f" </p><p style="margin-bottom: 0px">Profile: <a href="StructureDefinition-Ingredient-uv-epi.html">Ingredient (ePI)</a></p></div><p><b>identifier</b>: id: GFX7QIS1II (OFFICIAL)</p><p><b>status</b>: active</p><p><b>role</b>: active <span style="background: LightGoldenRodYellow; margin: 4px; border: 1px solid khaki"> (#00000072072)</span></p><h3>Manufacturers</h3><table class="grid"><tr><td>-</td><td><b>Manufacturer</b></td></tr><tr><td>*</td><td><a href="#Organization_02108a99-0146-4b46-ae72-44e35ca682fc">See above (Organization/02108a99-0146-4b46-ae72-44e35ca682fc)</a></td></tr></table><blockquote><p><b>substance</b></p><h3>Strengths</h3><table class="grid"><tr><td>-</td><td><b>Presentation[x]</b></td><td><b>Basis</b></td></tr><tr><td>*</td><td>100 units/ml</td><td>active ingredient - basis of strength <span style="background: LightGoldenRodYellow; margin: 4px; border: 1px solid khaki"> (v3-RoleClassIngredientEntity#ACTIB)</span></td></tr></table></blockquote></div>
        </text>
        <identifier>
          <use value="official"/>
          <system value="https://gsrs.ncats.nih.gov/ginas/app/beta/"/>
          <value value="GFX7QIS1II"/>
        </identifier>
        <status value="active"/>
        <role>
          <coding>
            <system value="https://spor.ema.europa.eu/rmswi/"/>
            <code value="00000072072"/>
          </coding>
          <text value="active"/>
        </role>
        <manufacturer>
          <manufacturer>
            <reference value="Organization/02108a99-0146-4b46-ae72-44e35ca682fc"/>
          </manufacturer>
        </manufacturer>
        <substance>
          <code>
            <concept>
              <coding>
                <system value="https://gsrs.ncats.nih.gov/ginas/app/beta/"/>
                <code value="GFX7QIS1II"/>
                <display value="Insulin lispro"/>
              </coding>
            </concept>
          </code>
          <strength>
            <presentationQuantity>
              <value value="100"/>
              <unit value="units/ml"/>
            </presentationQuantity>
            <basis>
              <coding>
                <system value="http://terminology.hl7.org/ValueSet/v3-RoleClassIngredientEntity"/>
                <code value="ACTIB"/>
              </coding>
              <text value="active ingredient - basis of strength"/>
            </basis>
          </strength>
        </substance>
      </Ingredient>
    </resource>
  </entry>
  <entry>
    <fullUrl value="urn:uuid:03f0b798-cf2a-4964-9e26-fb4958480a66"/>
    <resource>
      <Ingredient>
        <id value="03f0b798-cf2a-4964-9e26-fb4958480a66"/>
        <meta>
          <profile value="http://hl7.eu/fhir/ig/gravitate-health/StructureDefinition/Ingredient-uv-epi"/>
        </meta>
        <text>
          <status value="generated"/><div xmlns="http://www.w3.org/1999/xhtml"><p><b>Generated Narrative</b></p><div style="display: inline-block; background-color: #d9e0e7; padding: 6px; margin: 4px; border: 1px solid #8da1b4; border-radius: 5px; line-height: 60%"><p style="margin-bottom: 0px">Resource "03f0b798-cf2a-4964-9e26-fb4958480a66" </p><p style="margin-bottom: 0px">Profile: <a href="StructureDefinition-Ingredient-uv-epi.html">Ingredient (ePI)</a></p></div><p><b>identifier</b>: id: PDC6A3C0OX (OFFICIAL)</p><p><b>status</b>: active</p><p><b>role</b>: Excipient <span style="background: LightGoldenRodYellow; margin: 4px; border: 1px solid khaki"> (#100000072082)</span></p><h3>Manufacturers</h3><table class="grid"><tr><td>-</td><td><b>Manufacturer</b></td></tr><tr><td>*</td><td><a href="#Organization_1a2b1f1d-5e6c-40cd-96a1-ee4183243de8">See above (Organization/1a2b1f1d-5e6c-40cd-96a1-ee4183243de8)</a></td></tr></table><blockquote><p><b>substance</b></p></blockquote></div>
        </text>
        <identifier>
          <use value="official"/>
          <system value="https://gsrs.ncats.nih.gov/ginas/app/beta/"/>
          <value value="PDC6A3C0OX"/>
        </identifier>
        <status value="active"/>
        <role>
          <coding>
            <system value="https://spor.ema.europa.eu/rmswi/"/>
            <code value="100000072082"/>
          </coding>
          <text value="Excipient"/>
        </role>
        <manufacturer>
          <manufacturer>
            <reference value="Organization/1a2b1f1d-5e6c-40cd-96a1-ee4183243de8"/>
          </manufacturer>
        </manufacturer>
        <substance>
          <code>
            <concept>
              <coding>
                <system value="https://gsrs.ncats.nih.gov/ginas/app/beta/"/>
                <code value="PDC6A3C0OX"/>
                <display value="Glycerin"/>
              </coding>
            </concept>
          </code>
        </substance>
      </Ingredient>
    </resource>
  </entry>
  <entry>
    <fullUrl value="urn:uuid:713b8153-be01-4a8a-8903-e6dd558af4ae"/>
    <resource>
      <Ingredient>
        <id value="713b8153-be01-4a8a-8903-e6dd558af4ae"/>
        <meta>
          <profile value="http://hl7.eu/fhir/ig/gravitate-health/StructureDefinition/Ingredient-uv-epi"/>
        </meta>
        <text>
          <status value="generated"/><div xmlns="http://www.w3.org/1999/xhtml"><p><b>Generated Narrative</b></p><div style="display: inline-block; background-color: #d9e0e7; padding: 6px; margin: 4px; border: 1px solid #8da1b4; border-radius: 5px; line-height: 60%"><p style="margin-bottom: 0px">Resource "713b8153-be01-4a8a-8903-e6dd558af4ae" </p><p style="margin-bottom: 0px">Profile: <a href="StructureDefinition-Ingredient-uv-epi.html">Ingredient (ePI)</a></p></div><p><b>identifier</b>: id: QTT17582CB (OFFICIAL)</p><p><b>status</b>: active</p><p><b>role</b>: Excipient <span style="background: LightGoldenRodYellow; margin: 4px; border: 1px solid khaki"> (#100000072082)</span></p><h3>Manufacturers</h3><table class="grid"><tr><td>-</td><td><b>Manufacturer</b></td></tr><tr><td>*</td><td><a href="#Organization_1a2b1f1d-5e6c-40cd-96a1-ee4183243de8">See above (Organization/1a2b1f1d-5e6c-40cd-96a1-ee4183243de8)</a></td></tr></table><blockquote><p><b>substance</b></p></blockquote></div>
        </text>
        <identifier>
          <use value="official"/>
          <system value="https://gsrs.ncats.nih.gov/ginas/app/beta/"/>
          <value value="QTT17582CB"/>
        </identifier>
        <status value="active"/>
        <role>
          <coding>
            <system value="https://spor.ema.europa.eu/rmswi/"/>
            <code value="100000072082"/>
          </coding>
          <text value="Excipient"/>
        </role>
        <manufacturer>
          <manufacturer>
            <reference value="Organization/1a2b1f1d-5e6c-40cd-96a1-ee4183243de8"/>
          </manufacturer>
        </manufacturer>
        <substance>
          <code>
            <concept>
              <coding>
                <system value="https://gsrs.ncats.nih.gov/ginas/app/beta/"/>
                <code value="QTT17582CB"/>
                <display value="Hydrochloric acid"/>
              </coding>
            </concept>
          </code>
        </substance>
      </Ingredient>
    </resource>
  </entry>
  <entry>
    <fullUrl value="urn:uuid:b50f2c1f-70f0-4d11-9d14-4aa2882e5eb9"/>
    <resource>
      <Ingredient>
        <id value="b50f2c1f-70f0-4d11-9d14-4aa2882e5eb9"/>
        <meta>
          <profile value="http://hl7.eu/fhir/ig/gravitate-health/StructureDefinition/Ingredient-uv-epi"/>
        </meta>
        <text>
          <status value="generated"/><div xmlns="http://www.w3.org/1999/xhtml"><p><b>Generated Narrative</b></p><div style="display: inline-block; background-color: #d9e0e7; padding: 6px; margin: 4px; border: 1px solid #8da1b4; border-radius: 5px; line-height: 60%"><p style="margin-bottom: 0px">Resource "b50f2c1f-70f0-4d11-9d14-4aa2882e5eb9" </p><p style="margin-bottom: 0px">Profile: <a href="StructureDefinition-Ingredient-uv-epi.html">Ingredient (ePI)</a></p></div><p><b>identifier</b>: id: 55X04QC32I (OFFICIAL)</p><p><b>status</b>: active</p><p><b>role</b>: Excipient <span style="background: LightGoldenRodYellow; margin: 4px; border: 1px solid khaki"> (#100000072082)</span></p><h3>Manufacturers</h3><table class="grid"><tr><td>-</td><td><b>Manufacturer</b></td></tr><tr><td>*</td><td><a href="#Organization_1a2b1f1d-5e6c-40cd-96a1-ee4183243de8">See above (Organization/1a2b1f1d-5e6c-40cd-96a1-ee4183243de8)</a></td></tr></table><blockquote><p><b>substance</b></p></blockquote></div>
        </text>
        <identifier>
          <use value="official"/>
          <system value="https://gsrs.ncats.nih.gov/ginas/app/beta/"/>
          <value value="55X04QC32I"/>
        </identifier>
        <status value="active"/>
        <role>
          <coding>
            <system value="https://spor.ema.europa.eu/rmswi/"/>
            <code value="100000072082"/>
          </coding>
          <text value="Excipient"/>
        </role>
        <manufacturer>
          <manufacturer>
            <reference value="Organization/1a2b1f1d-5e6c-40cd-96a1-ee4183243de8"/>
          </manufacturer>
        </manufacturer>
        <substance>
          <code>
            <concept>
              <coding>
                <system value="https://gsrs.ncats.nih.gov/ginas/app/beta/"/>
                <code value="55X04QC32I"/>
                <display value="Sodium Hydroxide"/>
              </coding>
            </concept>
          </code>
        </substance>
      </Ingredient>
    </resource>
  </entry>
  <entry>
    <fullUrl value="urn:uuid:0e42bde2-8bbd-4fb1-9d67-51e3c7c6f245"/>
    <resource>
      <Ingredient>
        <id value="0e42bde2-8bbd-4fb1-9d67-51e3c7c6f245"/>
        <meta>
          <profile value="http://hl7.eu/fhir/ig/gravitate-health/StructureDefinition/Ingredient-uv-epi"/>
        </meta>
        <text>
          <status value="generated"/><div xmlns="http://www.w3.org/1999/xhtml"><p><b>Generated Narrative</b></p><div style="display: inline-block; background-color: #d9e0e7; padding: 6px; margin: 4px; border: 1px solid #8da1b4; border-radius: 5px; line-height: 60%"><p style="margin-bottom: 0px">Resource "0e42bde2-8bbd-4fb1-9d67-51e3c7c6f245" </p><p style="margin-bottom: 0px">Profile: <a href="StructureDefinition-Ingredient-uv-epi.html">Ingredient (ePI)</a></p></div><p><b>identifier</b>: id: 059QF0KO0R (OFFICIAL)</p><p><b>status</b>: active</p><p><b>role</b>: Excipient <span style="background: LightGoldenRodYellow; margin: 4px; border: 1px solid khaki"> (#100000072082)</span></p><h3>Manufacturers</h3><table class="grid"><tr><td>-</td><td><b>Manufacturer</b></td></tr><tr><td>*</td><td><a href="#Organization_1a2b1f1d-5e6c-40cd-96a1-ee4183243de8">See above (Organization/1a2b1f1d-5e6c-40cd-96a1-ee4183243de8)</a></td></tr></table><blockquote><p><b>substance</b></p></blockquote></div>
        </text>
        <identifier>
          <use value="official"/>
          <system value="https://gsrs.ncats.nih.gov/ginas/app/beta/"/>
          <value value="059QF0KO0R"/>
        </identifier>
        <status value="active"/>
        <role>
          <coding>
            <system value="https://spor.ema.europa.eu/rmswi/"/>
            <code value="100000072082"/>
          </coding>
          <text value="Excipient"/>
        </role>
        <manufacturer>
          <manufacturer>
            <reference value="Organization/1a2b1f1d-5e6c-40cd-96a1-ee4183243de8"/>
          </manufacturer>
        </manufacturer>
        <substance>
          <code>
            <concept>
              <coding>
                <system value="https://gsrs.ncats.nih.gov/ginas/app/beta/"/>
                <code value="059QF0KO0R"/>
                <display value="Water for Injection"/>
              </coding>
            </concept>
          </code>
        </substance>
      </Ingredient>
    </resource>
  </entry>
  <entry>
    <fullUrl value="urn:uuid:35e7766e-26f8-4f1b-a319-443278a64416"/>
    <resource>
      <Ingredient>
        <id value="35e7766e-26f8-4f1b-a319-443278a64416"/>
        <meta>
          <profile value="http://hl7.eu/fhir/ig/gravitate-health/StructureDefinition/Ingredient-uv-epi"/>
        </meta>
        <text>
          <status value="generated"/><div xmlns="http://www.w3.org/1999/xhtml"><p><b>Generated Narrative</b></p><div style="display: inline-block; background-color: #d9e0e7; padding: 6px; margin: 4px; border: 1px solid #8da1b4; border-radius: 5px; line-height: 60%"><p style="margin-bottom: 0px">Resource "35e7766e-26f8-4f1b-a319-443278a64416" </p><p style="margin-bottom: 0px">Profile: <a href="StructureDefinition-Ingredient-uv-epi.html">Ingredient (ePI)</a></p></div><p><b>identifier</b>: id: SOI2LOH54Z (OFFICIAL)</p><p><b>status</b>: active</p><p><b>role</b>: Excipient <span style="background: LightGoldenRodYellow; margin: 4px; border: 1px solid khaki"> (#100000072082)</span></p><h3>Manufacturers</h3><table class="grid"><tr><td>-</td><td><b>Manufacturer</b></td></tr><tr><td>*</td><td><a href="#Organization_1a2b1f1d-5e6c-40cd-96a1-ee4183243de8">See above (Organization/1a2b1f1d-5e6c-40cd-96a1-ee4183243de8)</a></td></tr></table><blockquote><p><b>substance</b></p></blockquote></div>
        </text>
        <identifier>
          <use value="official"/>
          <system value="https://gsrs.ncats.nih.gov/ginas/app/beta/"/>
          <value value="SOI2LOH54Z"/>
        </identifier>
        <status value="active"/>
        <role>
          <coding>
            <system value="https://spor.ema.europa.eu/rmswi/"/>
            <code value="100000072082"/>
          </coding>
          <text value="Excipient"/>
        </role>
        <manufacturer>
          <manufacturer>
            <reference value="Organization/1a2b1f1d-5e6c-40cd-96a1-ee4183243de8"/>
          </manufacturer>
        </manufacturer>
        <substance>
          <code>
            <concept>
              <coding>
                <system value="https://gsrs.ncats.nih.gov/ginas/app/beta/"/>
                <code value="SOI2LOH54Z"/>
                <display value="Zinc Oxide"/>
              </coding>
            </concept>
          </code>
        </substance>
      </Ingredient>
    </resource>
  </entry>
  <entry>
    <fullUrl value="urn:uuid:91c9bc45-3ea5-4cf5-854f-07c4360355dc"/>
    <resource>
      <Ingredient>
        <id value="91c9bc45-3ea5-4cf5-854f-07c4360355dc"/>
        <meta>
          <profile value="http://hl7.eu/fhir/ig/gravitate-health/StructureDefinition/Ingredient-uv-epi"/>
        </meta>
        <text>
          <status value="generated"/><div xmlns="http://www.w3.org/1999/xhtml"><p><b>Generated Narrative</b></p><div style="display: inline-block; background-color: #d9e0e7; padding: 6px; margin: 4px; border: 1px solid #8da1b4; border-radius: 5px; line-height: 60%"><p style="margin-bottom: 0px">Resource "91c9bc45-3ea5-4cf5-854f-07c4360355dc" </p><p style="margin-bottom: 0px">Profile: <a href="StructureDefinition-Ingredient-uv-epi.html">Ingredient (ePI)</a></p></div><p><b>identifier</b>: id: GGO4Y809LO (OFFICIAL)</p><p><b>status</b>: active</p><p><b>role</b>: Excipient <span style="background: LightGoldenRodYellow; margin: 4px; border: 1px solid khaki"> (#100000072082)</span></p><h3>Manufacturers</h3><table class="grid"><tr><td>-</td><td><b>Manufacturer</b></td></tr><tr><td>*</td><td><a href="#Organization_1a2b1f1d-5e6c-40cd-96a1-ee4183243de8">See above (Organization/1a2b1f1d-5e6c-40cd-96a1-ee4183243de8)</a></td></tr></table><blockquote><p><b>substance</b></p></blockquote></div>
        </text>
        <identifier>
          <use value="official"/>
          <system value="https://gsrs.ncats.nih.gov/ginas/app/beta/"/>
          <value value="GGO4Y809LO"/>
        </identifier>
        <status value="active"/>
        <role>
          <coding>
            <system value="https://spor.ema.europa.eu/rmswi/"/>
            <code value="100000072082"/>
          </coding>
          <text value="Excipient"/>
        </role>
        <manufacturer>
          <manufacturer>
            <reference value="Organization/1a2b1f1d-5e6c-40cd-96a1-ee4183243de8"/>
          </manufacturer>
        </manufacturer>
        <substance>
          <code>
            <concept>
              <coding>
                <system value="https://gsrs.ncats.nih.gov/ginas/app/beta/"/>
                <code value="GGO4Y809LO"/>
                <display value="Metacresol"/>
              </coding>
            </concept>
          </code>
        </substance>
      </Ingredient>
    </resource>
  </entry>
  <entry>
    <fullUrl value="urn:uuid:19f0b789-3c8b-4f56-93e1-9ef70b5626a2"/>
    <resource>
      <Ingredient>
        <id value="19f0b789-3c8b-4f56-93e1-9ef70b5626a2"/>
        <meta>
          <profile value="http://hl7.eu/fhir/ig/gravitate-health/StructureDefinition/Ingredient-uv-epi"/>
        </meta>
        <text>
          <status value="generated"/><div xmlns="http://www.w3.org/1999/xhtml"><p><b>Generated Narrative</b></p><div style="display: inline-block; background-color: #d9e0e7; padding: 6px; margin: 4px; border: 1px solid #8da1b4; border-radius: 5px; line-height: 60%"><p style="margin-bottom: 0px">Resource "19f0b789-3c8b-4f56-93e1-9ef70b5626a2" </p><p style="margin-bottom: 0px">Profile: <a href="StructureDefinition-Ingredient-uv-epi.html">Ingredient (ePI)</a></p></div><p><b>identifier</b>: id: 023C2WHX2V (OFFICIAL)</p><p><b>status</b>: active</p><p><b>role</b>: Excipient <span style="background: LightGoldenRodYellow; margin: 4px; border: 1px solid khaki"> (#100000072082)</span></p><h3>Manufacturers</h3><table class="grid"><tr><td>-</td><td><b>Manufacturer</b></td></tr><tr><td>*</td><td><a href="#Organization_1a2b1f1d-5e6c-40cd-96a1-ee4183243de8">See above (Organization/1a2b1f1d-5e6c-40cd-96a1-ee4183243de8)</a></td></tr></table><blockquote><p><b>substance</b></p></blockquote></div>
        </text>
        <identifier>
          <use value="official"/>
          <system value="https://gsrs.ncats.nih.gov/ginas/app/beta/"/>
          <value value="023C2WHX2V"/>
        </identifier>
        <status value="active"/>
        <role>
          <coding>
            <system value="https://spor.ema.europa.eu/rmswi/"/>
            <code value="100000072082"/>
          </coding>
          <text value="Excipient"/>
        </role>
        <manufacturer>
          <manufacturer>
            <reference value="Organization/1a2b1f1d-5e6c-40cd-96a1-ee4183243de8"/>
          </manufacturer>
        </manufacturer>
        <substance>
          <code>
            <concept>
              <coding>
                <system value="https://gsrs.ncats.nih.gov/ginas/app/beta/"/>
                <code value="023C2WHX2V"/>
                <display value="Tromethamine"/>
              </coding>
            </concept>
          </code>
        </substance>
      </Ingredient>
    </resource>
  </entry>
</Bundle>