<?xml version="1.0" encoding="UTF-8"?>

<Bundle xmlns="http://hl7.org/fhir">
  <id value="f237a390-9fda-42e9-a62d-1ba5079be192"/>
  <identifier>
    <system value="https://www.gravitatehealth.eu/sid/doc"/>
    <value value="4291012F1022_4_02"/>
  </identifier>
  <type value="document"/>
  <timestamp value="2002-08-01T13:28:17Z"/>
  <entry>
    <resource>
      <Composition>
        <id value="363cbf4a-9c4d-442a-af67-b72a1225ca28"/>
        <meta>
          <profile value="http://hl7.eu/fhir/ig/gravitate-health/StructureDefinition/Composition-uv-epi"/>
        </meta>
        <language value="en"/>
        <text>
          <status value="generated"/><div xmlns="http://www.w3.org/1999/xhtml" xml:lang="en" lang="en"><p><b>Generated Narrative</b></p><div style="display: inline-block; background-color: #d9e0e7; padding: 6px; margin: 4px; border: 1px solid #8da1b4; border-radius: 5px; line-height: 60%"><p style="margin-bottom: 0px">Resource "363cbf4a-9c4d-442a-af67-b72a1225ca28"  (Language "en") </p><p style="margin-bottom: 0px">Profile: <a href="StructureDefinition-Composition-uv-epi.html">Composition (ePI)</a></p></div><p><b>status</b>: final</p><p><b>type</b>: Package Leaflet <span style="background: LightGoldenRodYellow; margin: 4px; border: 1px solid khaki"> (#100000155538)</span></p><p><b>date</b>: 2002-08-01 01:28:17+0000</p><p><b>author</b>: <a href="#Organization_85c5d81e-9d5a-4a15-8b9d-42bbbe0409c8">See above (Organization/85c5d81e-9d5a-4a15-8b9d-42bbbe0409c8)</a></p><p><b>title</b>: TEST PURPOSES ONLY - Aromasin (exemestane) Tablets 25 mg tablets</p><p><b>confidentiality</b>: U</p><h3>Attesters</h3><table class="grid"><tr><td>-</td><td><b>Mode</b></td><td><b>Time</b></td></tr><tr><td>*</td><td>Official <span style="background: LightGoldenRodYellow; margin: 4px; border: 1px solid khaki"> (<a href="http://build.fhir.org/codesystem-composition-attestation-mode.html">CompositionAttestationMode</a>#official)</span></td><td>2002-08-01 01:28:17+0000</td></tr></table></div>
        </text>
        <status value="final"/>
        <type>
          <coding>
            <system value="https://spor.ema.europa.eu/"/>
            <code value="100000155538"/>
          </coding>
          <text value="Package Leaflet"/>
        </type>
        <subject>
          <reference value="RegulatedAuthorization/56b3b73e-dba0-4447-b8cd-1e24ed637017"/>
        </subject>
        <date value="2002-08-01T13:28:17Z"/>
        <author>
          <reference value="Organization/85c5d81e-9d5a-4a15-8b9d-42bbbe0409c8"/>
        </author>
        <title value="TEST PURPOSES ONLY - Aromasin (exemestane) Tablets 25 mg tablets"/>
        <confidentiality value="U"/>
        <attester>
          <mode>
            <coding>
              <system value="http://hl7.org/fhir/composition-attestation-mode"/>
              <code value="official"/>
            </coding>
          </mode>
          <time value="2002-08-01T13:28:17Z"/>
        </attester>
        <section>
          <title value="SPL PATIENT PACKAGE INSERT SECTION"/>
          <code>
            <coding>
              <system value="https://fhir.loinc.org/"/>
              <code value="42230-3"/>
            </coding>
            <text value="PATIENT PACKAGE INSERT"/>
          </code>
          <text>
            <status value="additional"/><div xmlns="http://www.w3.org/1999/xhtml"></div>
          </text>
        </section>
        <section>
          <title value="What is AROMASIN?"/>
          <code>
            <coding>
              <system value="https://fhir.loinc.org/"/>
              <code value="42230-3-1"/>
            </coding>
            <text value="What is AROMASIN?"/>
          </code>
          <text>
            <status value="additional"/><div xmlns="http://www.w3.org/1999/xhtml">AROMASIN is used in women who are past menopause for the treatment of:</div>
          </text>
        </section>
        <section>
          <title value="Before you take AROMASIN, tell your doctor about all your medical conditions, including if you:"/>
          <code>
            <coding>
              <system value="https://fhir.loinc.org/"/>
              <code value="42230-3-2"/>
            </coding>
            <text value="Before you take AROMASIN, tell your doctor about all your medical conditions, including if you:"/>
          </code>
          <text>
            <status value="additional"/><div xmlns="http://www.w3.org/1999/xhtml">are still having menstrual periods (are not past menopause). AROMASIN is only for women who are past menopause. have weak or brittle bones (osteoporosis)</div>
          </text>
        </section>
        <section>
          <title value="How should I take AROMASIN?"/>
          <code>
            <coding>
              <system value="https://fhir.loinc.org/"/>
              <code value="42230-3-3"/>
            </coding>
            <text value="How should I take AROMASIN?"/>
          </code>
          <text>
            <status value="additional"/><div xmlns="http://www.w3.org/1999/xhtml">Take AROMASIN exactly as your doctor tells you. Take AROMASIN 1 time each day after a meal. If you take too much AROMASIN, call your doctor right away or go to nearest hospital emergency room.</div>
          </text>
        </section>
        <section>
          <title value="What are the possible side effects of AROMASIN?"/>
          <code>
            <coding>
              <system value="https://fhir.loinc.org/"/>
              <code value="42230-3-4"/>
            </coding>
            <text value="What are the possible side effects of AROMASIN?"/>
          </code>
          <text>
            <status value="additional"/><div xmlns="http://www.w3.org/1999/xhtml">Your doctor will do blood tests to check your vitamin D level before starting treatment with AROMASIN. AROMASIN may cause decreased fertility in males and females. Talk to your doctor if you have concerns about fertility. These are not all the possible side effects of AROMASIN. Call your doctor for medical advice about side effects. You may report side effects to FDA at 1-800-FDA-1088.</div>
          </text>
        </section>
        <section>
          <title value="How should I store AROMASIN?"/>
          <code>
            <coding>
              <system value="https://fhir.loinc.org/"/>
              <code value="42230-3-5"/>
            </coding>
            <text value="How should I store AROMASIN?"/>
          </code>
          <text>
            <status value="additional"/><div xmlns="http://www.w3.org/1999/xhtml">Store AROMASIN at room temperature 68째F to 77째F (20째C to 25째C). Keep AROMASIN and all medicines out of the reach of children.</div>
          </text>
        </section>
        <section>
          <title value="General information about the safe and effective use of AROMASIN."/>
          <code>
            <coding>
              <system value="https://fhir.loinc.org/"/>
              <code value="42230-3-6"/>
            </coding>
            <text value="General information about the safe and effective use of AROMASIN."/>
          </code>
          <text>
            <status value="additional"/><div xmlns="http://www.w3.org/1999/xhtml">Medicines are sometimes prescribed for purposes other than those listed in a Patient Information leaflet. Do not use AROMASIN for a condition for which it was not prescribed. Do not give AROMASIN to other people, even if they have the same symptoms you have. It may harm them. You can ask your pharmacist or doctor for information about AROMASIN that is written for health professionals.</div>
          </text>
        </section>
        <section>
          <title value="What is in AROMASIN?"/>
          <code>
            <coding>
              <system value="https://fhir.loinc.org/"/>
              <code value="42230-3-6"/>
            </coding>
            <text value="What is in AROMASIN?"/>
          </code>
          <text>
            <status value="additional"/><div xmlns="http://www.w3.org/1999/xhtml">Active ingredient: exemestane Inactive ingredients: mannitol, crospovidone, polysorbate 80, hypromellose, colloidal silicon dioxide, microcrystalline cellulose, sodium starch glycolate, magnesium stearate, simethicone, polyethylene glycol 6000, sucrose, magnesium carbonate, titanium dioxide, methylparaben, and polyvinyl alcohol. Logo LAB-0399-9.0 For more information, go to www.AROMASIN.com or call 1-888-AROMASIN (1-888-276-6274).</div>
          </text>
        </section>
      </Composition>
    </resource>
  </entry>
  <entry>
    <resource>
      <Organization>
        <id value="85c5d81e-9d5a-4a15-8b9d-42bbbe0409c8"/>
        <meta>
          <profile value="http://hl7.eu/fhir/ig/gravitate-health/StructureDefinition/Organization-uv-epi"/>
        </meta>
        <text>
          <status value="generated"/><div xmlns="http://www.w3.org/1999/xhtml"><p><b>Generated Narrative</b></p><div style="display: inline-block; background-color: #d9e0e7; padding: 6px; margin: 4px; border: 1px solid #8da1b4; border-radius: 5px; line-height: 60%"><p style="margin-bottom: 0px">Resource "85c5d81e-9d5a-4a15-8b9d-42bbbe0409c8" </p><p style="margin-bottom: 0px">Profile: <a href="StructureDefinition-Organization-uv-epi.html">Organization (ePI)</a></p></div><p><b>identifier</b>: id: 672212 (OFFICIAL)</p><p><b>active</b>: true</p><p><b>type</b>: Manufacturer <span style="background: LightGoldenRodYellow; margin: 4px; border: 1px solid khaki"> (#tbd "Marketing authorisation holder")</span></p><p><b>name</b>: Pfizer, Inc.</p><p><b>telecom</b>: ph: 0120-664-467(WORK), fax: 03-3379-3053(WORK)</p><p><b>address</b>: 3-22-7 Yoyogi, Shibuya-ku, Tokyo(WORK)</p></div>
        </text>
        <identifier>
          <use value="official"/>
          <system value="https://pmda-org-id"/>
          <value value="672212"/>
        </identifier>
        <active value="true"/>
        <type>
          <coding>
            <system value="https://PMDA-org-type.jp/"/>
            <code value="tbd"/>
            <display value="Marketing authorisation holder"/>
          </coding>
          <text value="Manufacturer"/>
        </type>
        <name value="Pfizer, Inc."/>
        <telecom>
          <system value="phone"/>
          <value value="0120-664-467"/>
          <use value="work"/>
        </telecom>
        <telecom>
          <system value="fax"/>
          <value value="03-3379-3053"/>
          <use value="work"/>
        </telecom>
        <address>
          <use value="work"/>
          <type value="physical"/>
          <text value="3-22-7 Yoyogi, Shibuya-ku, Tokyo"/>
          <line value="3-22-7 Yoyogi"/>
          <city value="Tokyo"/>
          <country value="JP"/>
        </address>
      </Organization>
    </resource>
  </entry>
  <entry>
    <resource>
      <RegulatedAuthorization>
        <id value="56b3b73e-dba0-4447-b8cd-1e24ed637017"/>
        <meta>
          <profile value="http://hl7.eu/fhir/ig/gravitate-health/StructureDefinition/RegulatedAuthorization-uv-epi"/>
        </meta>
        <text>
          <status value="generated"/><div xmlns="http://www.w3.org/1999/xhtml"><p><b>Generated Narrative</b></p><div style="display: inline-block; background-color: #d9e0e7; padding: 6px; margin: 4px; border: 1px solid #8da1b4; border-radius: 5px; line-height: 60%"><p style="margin-bottom: 0px">Resource "56b3b73e-dba0-4447-b8cd-1e24ed637017" </p><p style="margin-bottom: 0px">Profile: <a href="StructureDefinition-RegulatedAuthorization-uv-epi.html">RegulatedAuthorization (ePI)</a></p></div><p><b>identifier</b>: id: 21400AMY00186 (OFFICIAL)</p><p><b>subject</b>: <a href="#MedicinalProductDefinition_f1b25777-da7a-4a35-98af-ab18d3246d54">See above (MedicinalProductDefinition/f1b25777-da7a-4a35-98af-ab18d3246d54)</a></p><p><b>type</b>: Marketing Authorisation <span style="background: LightGoldenRodYellow; margin: 4px; border: 1px solid khaki"> (#/#100000072062)</span></p><p><b>region</b>: Japan <span style="background: LightGoldenRodYellow; margin: 4px; border: 1px solid khaki"> (unknown#jp)</span></p><p><b>status</b>: Active <span style="background: LightGoldenRodYellow; margin: 4px; border: 1px solid khaki"> (<a href="http://build.fhir.org/codesystem-publication-status.html">PublicationStatus</a>#active)</span></p><p><b>statusDate</b>: 2002-08-01 01:28:17+0000</p><p><b>holder</b>: <a href="#Organization_85c5d81e-9d5a-4a15-8b9d-42bbbe0409c8">See above (Organization/85c5d81e-9d5a-4a15-8b9d-42bbbe0409c8)</a></p></div>
        </text>
        <identifier>
          <use value="official"/>
          <system value="https://pmda-approvalandlicenseno/"/>
          <value value="21400AMY00186"/>
        </identifier>
        <subject>
          <reference value="MedicinalProductDefinition/f1b25777-da7a-4a35-98af-ab18d3246d54"/>
        </subject>
        <type>
          <coding>
            <system value="https://spor.ema.europa.eu/rmswi/"/>
            <code value="/#100000072062"/>
          </coding>
          <text value="Marketing Authorisation"/>
        </type>
        <region>
          <coding>
            <system value="urn:iso:std:iso:3166"/>
            <code value="jp"/>
          </coding>
          <text value="Japan"/>
        </region>
        <status>
          <coding>
            <system value="http://hl7.org/fhir/publication-status"/>
            <code value="active"/>
          </coding>
          <text value="Active"/>
        </status>
        <statusDate value="2002-08-01T13:28:17Z"/>
        <holder>
          <reference value="Organization/85c5d81e-9d5a-4a15-8b9d-42bbbe0409c8"/>
        </holder>
      </RegulatedAuthorization>
    </resource>
  </entry>
  <entry>
    <resource>
      <MedicinalProductDefinition>
        <id value="f1b25777-da7a-4a35-98af-ab18d3246d54"/>
        <meta>
          <profile value="http://hl7.eu/fhir/ig/gravitate-health/StructureDefinition/MedicinalProductDefinition-uv-epi"/>
        </meta>
        <text>
          <status value="generated"/><div xmlns="http://www.w3.org/1999/xhtml"><p><b>Generated Narrative</b></p><div style="display: inline-block; background-color: #d9e0e7; padding: 6px; margin: 4px; border: 1px solid #8da1b4; border-radius: 5px; line-height: 60%"><p style="margin-bottom: 0px">Resource "f1b25777-da7a-4a35-98af-ab18d3246d54" </p><p style="margin-bottom: 0px">Profile: <a href="StructureDefinition-MedicinalProductDefinition-uv-epi.html">MedicinalProductDefinition (ePI)</a></p></div><p><b>identifier</b>: id: 123456</p><p><b>type</b>: Medicinal Product <span style="background: LightGoldenRodYellow; margin: 4px; border: 1px solid khaki"> (<a href="http://build.fhir.org/codesystem-medicinal-product-type.html">MedicinalProductType</a>#MedicinalProduct)</span></p><p><b>domain</b>: Human use <span style="background: LightGoldenRodYellow; margin: 4px; border: 1px solid khaki"> (<a href="http://build.fhir.org/codesystem-medicinal-product-domain.html">MedicinalProductDomain</a>#Human)</span></p><p><b>status</b>: Active <span style="background: LightGoldenRodYellow; margin: 4px; border: 1px solid khaki"> (<a href="http://build.fhir.org/codesystem-publication-status.html">PublicationStatus</a>#active)</span></p><p><b>legalStatusOfSupply</b>: Medicinal product subject to medical prescription <span style="background: LightGoldenRodYellow; margin: 4px; border: 1px solid khaki"> (<a href="CodeSystem-CodeSystemUvEPIRrmswi.html">Referentials Management Services CodeSystem</a>#100000072084)</span></p><blockquote><p><b>name</b></p><p><b>productName</b>: Aromasin (exemestane) Tablets 25 mg</p><p><b>type</b>: Full name <span style="background: LightGoldenRodYellow; margin: 4px; border: 1px solid khaki"> (<a href="CodeSystem-CodeSystemUvEPIRrmswi.html">Referentials Management Services CodeSystem</a>#220000000001)</span></p><h3>NameParts</h3><table class="grid"><tr><td>-</td><td><b>Part</b></td><td><b>Type</b></td></tr><tr><td>*</td><td>Tablet</td><td>Pharmaceutical dose form part <span style="background: LightGoldenRodYellow; margin: 4px; border: 1px solid khaki"> (<a href="CodeSystem-CodeSystemUvEPIRrmswi.html">Referentials Management Services CodeSystem</a>#220000000005)</span></td></tr></table><h3>CountryLanguages</h3><table class="grid"><tr><td>-</td><td><b>Country</b></td><td><b>Jurisdiction</b></td><td><b>Language</b></td></tr><tr><td>*</td><td>Japan <span style="background: LightGoldenRodYellow; margin: 4px; border: 1px solid khaki"> (unknown#jp)</span></td><td>Japan <span style="background: LightGoldenRodYellow; margin: 4px; border: 1px solid khaki"> (unknown#jp)</span></td><td>Japanese <span style="background: LightGoldenRodYellow; margin: 4px; border: 1px solid khaki"> (unknown#ja)</span></td></tr></table></blockquote></div>
        </text>
        <identifier>
          <system value="https://spor.ema.europa.eu/pmswi"/>
          <value value="123456"/>
        </identifier>
        <type>
          <coding>
            <system value="http://hl7.org/fhir/medicinal-product-type"/>
            <code value="MedicinalProduct"/>
          </coding>
          <text value="Medicinal Product"/>
        </type>
        <domain>
          <coding>
            <system value="http://hl7.org/fhir/medicinal-product-domain"/>
            <code value="Human"/>
          </coding>
          <text value="Human use"/>
        </domain>
        <status>
          <coding>
            <system value="http://hl7.org/fhir/publication-status"/>
            <code value="active"/>
            <display value="Active"/>
          </coding>
        </status>
        <legalStatusOfSupply>
          <coding>
            <system value="https://spor.ema.europa.eu/rmswi"/>
            <code value="100000072084"/>
          </coding>
          <text value="Medicinal product subject to medical prescription"/>
        </legalStatusOfSupply>
        <name>
          <productName value="Aromasin (exemestane) Tablets 25 mg"/>
          <type>
            <coding>
              <system value="https://spor.ema.europa.eu/rmswi"/>
              <code value="220000000001"/>
            </coding>
            <text value="Full name"/>
          </type>
          <namePart>
            <part value="Tablet"/>
            <type>
              <coding>
                <system value="https://spor.ema.europa.eu/rmswi"/>
                <code value="220000000005"/>
              </coding>
              <text value="Pharmaceutical dose form part"/>
            </type>
          </namePart>
          <countryLanguage>
            <country>
              <coding>
                <system value="urn:iso:std:iso:3166"/>
                <code value="jp"/>
              </coding>
              <text value="Japan"/>
            </country>
            <jurisdiction>
              <coding>
                <system value="urn:iso:std:iso:3166"/>
                <code value="jp"/>
              </coding>
              <text value="Japan"/>
            </jurisdiction>
            <language>
              <coding>
                <system value="urn:iso:std:iso:639-1"/>
                <code value="ja"/>
              </coding>
              <text value="Japanese"/>
            </language>
          </countryLanguage>
        </name>
      </MedicinalProductDefinition>
    </resource>
  </entry>
  <entry>
    <resource>
      <PackagedProductDefinition>
        <id value="39151aef-f61a-40cb-86fc-d0e556fa07ef"/>
        <meta>
          <profile value="http://hl7.eu/fhir/ig/gravitate-health/StructureDefinition/PackagedProductDefinition-uv-epi"/>
        </meta>
        <text>
          <status value="generated"/><div xmlns="http://www.w3.org/1999/xhtml"><p><b>Generated Narrative</b></p><div style="display: inline-block; background-color: #d9e0e7; padding: 6px; margin: 4px; border: 1px solid #8da1b4; border-radius: 5px; line-height: 60%"><p style="margin-bottom: 0px">Resource "39151aef-f61a-40cb-86fc-d0e556fa07ef" </p><p style="margin-bottom: 0px">Profile: <a href="StructureDefinition-PackagedProductDefinition-uv-epi.html">PackagedProductDefinition (ePI)</a></p></div><p><b>identifier</b>: id: 4291012F1022_4_02-001 (OFFICIAL)</p><p><b>name</b>: Aromasin (exemestane) Tablets 25 mg - 28 tablets [14 tablets (PTP) x 2]</p><p><b>type</b>: Chemical Medininal Prodcut <span style="background: LightGoldenRodYellow; margin: 4px; border: 1px solid khaki"> (<a href="CodeSystem-CodeSystemUvEPIRrmswi.html">Referentials Management Services CodeSystem</a>#100000155527)</span></p><p><b>packageFor</b>: <a href="#MedicinalProductDefinition_f1b25777-da7a-4a35-98af-ab18d3246d54">See above (MedicinalProductDefinition/f1b25777-da7a-4a35-98af-ab18d3246d54)</a></p><p><b>status</b>: Active <span style="background: LightGoldenRodYellow; margin: 4px; border: 1px solid khaki"> (<a href="http://build.fhir.org/codesystem-publication-status.html">PublicationStatus</a>#active)</span></p><p><b>statusDate</b>: 2002-08-01 01:28:17+0000</p><p><b>containedItemQuantity</b>: 28 tablet</p><p><b>manufacturer</b>: <a href="#Organization_85c5d81e-9d5a-4a15-8b9d-42bbbe0409c8">See above (Organization/85c5d81e-9d5a-4a15-8b9d-42bbbe0409c8)</a></p><blockquote><p><b>package</b></p><p><b>identifier</b>: id: 123456</p><p><b>type</b>: Blister <span style="background: LightGoldenRodYellow; margin: 4px; border: 1px solid khaki"> (<a href="CodeSystem-CodeSystemUvEPIRrmswi.html">Referentials Management Services CodeSystem</a>#30007000)</span></p><p><b>quantity</b>: 1</p><p><b>material</b>: PolyVinyl Chloride <span style="background: LightGoldenRodYellow; margin: 4px; border: 1px solid khaki"> (<a href="CodeSystem-CodeSystemUvEPIRrmswi.html">Referentials Management Services CodeSystem</a>#200000003222)</span></p><blockquote><p><b>containedItem</b></p></blockquote></blockquote></div>
        </text>
        <identifier>
          <use value="official"/>
          <system value="https://spor.ema.europa.eu/pmswi"/>
          <value value="4291012F1022_4_02-001"/>
        </identifier>
        <name value="Aromasin (exemestane) Tablets 25 mg - 28 tablets [14 tablets (PTP) x 2]"/>
        <type>
          <coding>
            <system value="https://spor.ema.europa.eu/rmswi"/>
            <code value="100000155527"/>
          </coding>
          <text value="Chemical Medininal Prodcut"/>
        </type>
        <packageFor>
          <reference value="MedicinalProductDefinition/f1b25777-da7a-4a35-98af-ab18d3246d54"/>
        </packageFor>
        <status>
          <coding>
            <system value="http://hl7.org/fhir/publication-status"/>
            <code value="active"/>
            <display value="Active"/>
          </coding>
        </status>
        <statusDate value="2002-08-01T13:28:17Z"/>
        <containedItemQuantity>
          <value value="28"/>
          <unit value="tablet"/>
        </containedItemQuantity>
        <manufacturer>
          <reference value="Organization/85c5d81e-9d5a-4a15-8b9d-42bbbe0409c8"/>
        </manufacturer>
        <package>
          <identifier>
            <system value="https://spor.ema.europa.eu/pmswi"/>
            <value value="123456"/>
          </identifier>
          <type>
            <coding>
              <system value="https://spor.ema.europa.eu/rmswi"/>
              <code value="30007000"/>
              <display value="Blister"/>
            </coding>
          </type>
          <quantity value="1"/>
          <material>
            <coding>
              <system value="https://spor.ema.europa.eu/rmswi"/>
              <code value="200000003222"/>
              <display value="PolyVinyl Chloride"/>
            </coding>
          </material>
          <containedItem>
            <item>
              <reference>
                <reference value="ManufacturedItemDefinition/23fed712-2d60-461d-83a6-5fb939b2a939"/>
              </reference>
            </item>
          </containedItem>
        </package>
      </PackagedProductDefinition>
    </resource>
  </entry>
  <entry>
    <resource>
      <PackagedProductDefinition>
        <id value="99d32917-3fd8-434b-bd1f-195a462326c1"/>
        <meta>
          <profile value="http://hl7.eu/fhir/ig/gravitate-health/StructureDefinition/PackagedProductDefinition-uv-epi"/>
        </meta>
        <text>
          <status value="generated"/><div xmlns="http://www.w3.org/1999/xhtml"><p><b>Generated Narrative</b></p><div style="display: inline-block; background-color: #d9e0e7; padding: 6px; margin: 4px; border: 1px solid #8da1b4; border-radius: 5px; line-height: 60%"><p style="margin-bottom: 0px">Resource "99d32917-3fd8-434b-bd1f-195a462326c1" </p><p style="margin-bottom: 0px">Profile: <a href="StructureDefinition-PackagedProductDefinition-uv-epi.html">PackagedProductDefinition (ePI)</a></p></div><p><b>identifier</b>: id: 4291012F1022_4_02-002 (OFFICIAL)</p><p><b>name</b>: Aromasin (exemestane) Tablets 25 mg - 140 tablets [14 tablets (PTP) x 10]</p><p><b>type</b>: Chemical Medininal Prodcut <span style="background: LightGoldenRodYellow; margin: 4px; border: 1px solid khaki"> (<a href="CodeSystem-CodeSystemUvEPIRrmswi.html">Referentials Management Services CodeSystem</a>#100000155527)</span></p><p><b>packageFor</b>: <a href="#MedicinalProductDefinition_f1b25777-da7a-4a35-98af-ab18d3246d54">See above (MedicinalProductDefinition/f1b25777-da7a-4a35-98af-ab18d3246d54)</a></p><p><b>status</b>: Active <span style="background: LightGoldenRodYellow; margin: 4px; border: 1px solid khaki"> (<a href="http://build.fhir.org/codesystem-publication-status.html">PublicationStatus</a>#active)</span></p><p><b>statusDate</b>: 2002-08-01 01:28:17+0000</p><p><b>containedItemQuantity</b>: 140 tablet</p><p><b>manufacturer</b>: <a href="#Organization_85c5d81e-9d5a-4a15-8b9d-42bbbe0409c8">See above (Organization/85c5d81e-9d5a-4a15-8b9d-42bbbe0409c8)</a></p><blockquote><p><b>package</b></p><p><b>identifier</b>: id: 78910</p><p><b>type</b>: Blister <span style="background: LightGoldenRodYellow; margin: 4px; border: 1px solid khaki"> (<a href="CodeSystem-CodeSystemUvEPIRrmswi.html">Referentials Management Services CodeSystem</a>#30007000)</span></p><p><b>quantity</b>: 1</p><p><b>material</b>: PolyVinyl Chloride <span style="background: LightGoldenRodYellow; margin: 4px; border: 1px solid khaki"> (<a href="CodeSystem-CodeSystemUvEPIRrmswi.html">Referentials Management Services CodeSystem</a>#200000003222)</span></p><blockquote><p><b>containedItem</b></p></blockquote></blockquote></div>
        </text>
        <identifier>
          <use value="official"/>
          <system value="https://pmda-packinsertno/"/>
          <value value="4291012F1022_4_02-002"/>
        </identifier>
        <name value="Aromasin (exemestane) Tablets 25 mg - 140 tablets [14 tablets (PTP) x 10]"/>
        <type>
          <coding>
            <system value="https://spor.ema.europa.eu/rmswi"/>
            <code value="100000155527"/>
          </coding>
          <text value="Chemical Medininal Prodcut"/>
        </type>
        <packageFor>
          <reference value="MedicinalProductDefinition/f1b25777-da7a-4a35-98af-ab18d3246d54"/>
        </packageFor>
        <status>
          <coding>
            <system value="http://hl7.org/fhir/publication-status"/>
            <code value="active"/>
            <display value="Active"/>
          </coding>
        </status>
        <statusDate value="2002-08-01T13:28:17Z"/>
        <containedItemQuantity>
          <value value="140"/>
          <unit value="tablet"/>
        </containedItemQuantity>
        <manufacturer>
          <reference value="Organization/85c5d81e-9d5a-4a15-8b9d-42bbbe0409c8"/>
        </manufacturer>
        <package>
          <identifier>
            <system value="https://spor.ema.europa.eu/pmswi"/>
            <value value="78910"/>
          </identifier>
          <type>
            <coding>
              <system value="https://spor.ema.europa.eu/rmswi"/>
              <code value="30007000"/>
              <display value="Blister"/>
            </coding>
          </type>
          <quantity value="1"/>
          <material>
            <coding>
              <system value="https://spor.ema.europa.eu/rmswi"/>
              <code value="200000003222"/>
              <display value="PolyVinyl Chloride"/>
            </coding>
          </material>
          <containedItem>
            <item>
              <reference>
                <reference value="ManufacturedItemDefinition/23fed712-2d60-461d-83a6-5fb939b2a939"/>
              </reference>
            </item>
          </containedItem>
        </package>
      </PackagedProductDefinition>
    </resource>
  </entry>
  <entry>
    <resource>
      <AdministrableProductDefinition>
        <id value="8cf05f7c-481d-4bd6-9a7c-9ca3275601c3"/>
        <meta>
          <profile value="http://hl7.eu/fhir/ig/gravitate-health/StructureDefinition/AdministrableProductDefinition-uv-epi"/>
        </meta>
        <text>
          <status value="generated"/><div xmlns="http://www.w3.org/1999/xhtml"><p><b>Generated Narrative</b></p><div style="display: inline-block; background-color: #d9e0e7; padding: 6px; margin: 4px; border: 1px solid #8da1b4; border-radius: 5px; line-height: 60%"><p style="margin-bottom: 0px">Resource "8cf05f7c-481d-4bd6-9a7c-9ca3275601c3" </p><p style="margin-bottom: 0px">Profile: <a href="StructureDefinition-AdministrableProductDefinition-uv-epi.html">AdministrableProductDefinition (ePI)</a></p></div><p><b>identifier</b>: id: abc123</p><p><b>status</b>: active</p><p><b>formOf</b>: <a href="#MedicinalProductDefinition_f1b25777-da7a-4a35-98af-ab18d3246d54">See above (MedicinalProductDefinition/f1b25777-da7a-4a35-98af-ab18d3246d54)</a></p><p><b>administrableDoseForm</b>: Tablet <span style="background: LightGoldenRodYellow; margin: 4px; border: 1px solid khaki"> (#10219000)</span></p><p><b>unitOfPresentation</b>: Tablet <span style="background: LightGoldenRodYellow; margin: 4px; border: 1px solid khaki"> (#15054000)</span></p><p><b>producedFrom</b>: <a href="#ManufacturedItemDefinition_23fed712-2d60-461d-83a6-5fb939b2a939">See above (ManufacturedItemDefinition/23fed712-2d60-461d-83a6-5fb939b2a939)</a></p><blockquote><p><b>routeOfAdministration</b></p><p><b>code</b>: Oral use <span style="background: LightGoldenRodYellow; margin: 4px; border: 1px solid khaki"> (#20053000)</span></p><h3>TargetSpecies</h3><table class="grid"><tr><td>-</td><td><b>Code</b></td></tr><tr><td>*</td><td>Human <span style="background: LightGoldenRodYellow; margin: 4px; border: 1px solid khaki"> (#/#100000109093)</span></td></tr></table></blockquote></div>
        </text>
        <identifier>
          <system value="https://www.who-umc.org/phpid"/>
          <value value="abc123"/>
        </identifier>
        <status value="active"/>
        <formOf>
          <reference value="MedicinalProductDefinition/f1b25777-da7a-4a35-98af-ab18d3246d54"/>
        </formOf>
        <administrableDoseForm>
          <coding>
            <system value="https://standardterms.edqm.eu/browse/get_concepts_by/SOM/SOM/"/>
            <code value="10219000"/>
          </coding>
          <text value="Tablet"/>
        </administrableDoseForm>
        <unitOfPresentation>
          <coding>
            <system value="https://standardterms.edqm.eu/browse/get_concepts/UOP/"/>
            <code value="15054000"/>
          </coding>
          <text value="Tablet"/>
        </unitOfPresentation>
        <producedFrom>
          <reference value="ManufacturedItemDefinition/23fed712-2d60-461d-83a6-5fb939b2a939"/>
        </producedFrom>
        <routeOfAdministration>
          <code>
            <coding>
              <system value="https://standardterms.edqm.eu/browse/get_concepts/ROA/"/>
              <code value="20053000"/>
            </coding>
            <text value="Oral use"/>
          </code>
          <targetSpecies>
            <code>
              <coding>
                <system value="https://spor.ema.europa.eu/rmswi/"/>
                <code value="/#100000109093"/>
              </coding>
              <text value="Human"/>
            </code>
          </targetSpecies>
        </routeOfAdministration>
      </AdministrableProductDefinition>
    </resource>
  </entry>
  <entry>
    <resource>
      <ManufacturedItemDefinition>
        <id value="23fed712-2d60-461d-83a6-5fb939b2a939"/>
        <meta>
          <profile value="http://hl7.eu/fhir/ig/gravitate-health/StructureDefinition/ManufacturedItemDefinition-uv-epi"/>
        </meta>
        <text>
          <status value="generated"/><div xmlns="http://www.w3.org/1999/xhtml"><p><b>Generated Narrative</b></p><div style="display: inline-block; background-color: #d9e0e7; padding: 6px; margin: 4px; border: 1px solid #8da1b4; border-radius: 5px; line-height: 60%"><p style="margin-bottom: 0px">Resource "23fed712-2d60-461d-83a6-5fb939b2a939" </p><p style="margin-bottom: 0px">Profile: <a href="StructureDefinition-ManufacturedItemDefinition-uv-epi.html">ManufacturedItemDefinition (ePI)</a></p></div><p><b>identifier</b>: id: 874291 (OFFICIAL)</p><p><b>status</b>: active</p><p><b>manufacturedDoseForm</b>: Tablet <span style="background: LightGoldenRodYellow; margin: 4px; border: 1px solid khaki"> (#10219000)</span></p><p><b>unitOfPresentation</b>: Tablet <span style="background: LightGoldenRodYellow; margin: 4px; border: 1px solid khaki"> (#15054000)</span></p><p><b>manufacturer</b>: <a href="#Organization_85c5d81e-9d5a-4a15-8b9d-42bbbe0409c8">See above (Organization/85c5d81e-9d5a-4a15-8b9d-42bbbe0409c8)</a></p></div>
        </text>
        <identifier>
          <use value="official"/>
          <system value="https://pmda-sccj"/>
          <value value="874291"/>
        </identifier>
        <status value="active"/>
        <manufacturedDoseForm>
          <coding>
            <system value="https://standardterms.edqm.eu/browse/get_concepts_by/SOM/SOM/"/>
            <code value="10219000"/>
          </coding>
          <text value="Tablet"/>
        </manufacturedDoseForm>
        <unitOfPresentation>
          <coding>
            <system value="https://standardterms.edqm.eu/browse/get_concepts/UOP/"/>
            <code value="15054000"/>
          </coding>
          <text value="Tablet"/>
        </unitOfPresentation>
        <manufacturer>
          <reference value="Organization/85c5d81e-9d5a-4a15-8b9d-42bbbe0409c8"/>
        </manufacturer>
      </ManufacturedItemDefinition>
    </resource>
  </entry>
  <entry>
    <resource>
      <Ingredient>
        <id value="5a574ff2-f3e6-4aaa-8d3c-27e6ab343533"/>
        <meta>
          <profile value="http://hl7.eu/fhir/ig/gravitate-health/StructureDefinition/Ingredient-uv-epi"/>
        </meta>
        <text>
          <status value="generated"/><div xmlns="http://www.w3.org/1999/xhtml"><p><b>Generated Narrative</b></p><div style="display: inline-block; background-color: #d9e0e7; padding: 6px; margin: 4px; border: 1px solid #8da1b4; border-radius: 5px; line-height: 60%"><p style="margin-bottom: 0px">Resource "5a574ff2-f3e6-4aaa-8d3c-27e6ab343533" </p><p style="margin-bottom: 0px">Profile: <a href="StructureDefinition-Ingredient-uv-epi.html">Ingredient (ePI)</a></p></div><p><b>identifier</b>: id: NY22HMQ4BX (OFFICIAL)</p><p><b>status</b>: active</p><p><b>for</b>: <a href="#ManufacturedItemDefinition_23fed712-2d60-461d-83a6-5fb939b2a939">See above (ManufacturedItemDefinition/23fed712-2d60-461d-83a6-5fb939b2a939)</a></p><p><b>role</b>: active <span style="background: LightGoldenRodYellow; margin: 4px; border: 1px solid khaki"> (#00000072072)</span></p><h3>Manufacturers</h3><table class="grid"><tr><td>-</td><td><b>Manufacturer</b></td></tr><tr><td>*</td><td><a href="#Organization_85c5d81e-9d5a-4a15-8b9d-42bbbe0409c8">See above (Organization/85c5d81e-9d5a-4a15-8b9d-42bbbe0409c8)</a></td></tr></table><blockquote><p><b>substance</b></p><h3>Strengths</h3><table class="grid"><tr><td>-</td><td><b>Presentation[x]</b></td><td><b>Basis</b></td></tr><tr><td>*</td><td>25 mg</td><td>active ingredient - basis of strength <span style="background: LightGoldenRodYellow; margin: 4px; border: 1px solid khaki"> (v3-RoleClassIngredientEntity#ACTIB)</span></td></tr></table></blockquote></div>
        </text>
        <identifier>
          <use value="official"/>
          <system value="https://gsrs.ncats.nih.gov/ginas/app/beta/"/>
          <value value="NY22HMQ4BX"/>
        </identifier>
        <status value="active"/>
        <for>
          <reference value="ManufacturedItemDefinition/23fed712-2d60-461d-83a6-5fb939b2a939"/>
        </for>
        <role>
          <coding>
            <system value="https://spor.ema.europa.eu/rmswi/"/>
            <code value="00000072072"/>
          </coding>
          <text value="active"/>
        </role>
        <manufacturer>
          <manufacturer>
            <reference value="Organization/85c5d81e-9d5a-4a15-8b9d-42bbbe0409c8"/>
          </manufacturer>
        </manufacturer>
        <substance>
          <code>
            <concept>
              <coding>
                <system value="https://gsrs.ncats.nih.gov/ginas/app/beta/"/>
                <code value="NY22HMQ4BX"/>
                <display value="exemestane"/>
              </coding>
            </concept>
          </code>
          <strength>
            <presentationQuantity>
              <value value="25"/>
              <unit value="mg"/>
            </presentationQuantity>
            <basis>
              <coding>
                <system value="http://terminology.hl7.org/ValueSet/v3-RoleClassIngredientEntity"/>
                <code value="ACTIB"/>
              </coding>
              <text value="active ingredient - basis of strength"/>
            </basis>
          </strength>
        </substance>
      </Ingredient>
    </resource>
  </entry>
  <entry>
    <resource>
      <Ingredient>
        <id value="f35c1543-e4e2-4215-b91c-f092b1fb9655"/>
        <meta>
          <profile value="http://hl7.eu/fhir/ig/gravitate-health/StructureDefinition/Ingredient-uv-epi"/>
        </meta>
        <text>
          <status value="generated"/><div xmlns="http://www.w3.org/1999/xhtml"><p><b>Generated Narrative</b></p><div style="display: inline-block; background-color: #d9e0e7; padding: 6px; margin: 4px; border: 1px solid #8da1b4; border-radius: 5px; line-height: 60%"><p style="margin-bottom: 0px">Resource "f35c1543-e4e2-4215-b91c-f092b1fb9655" </p><p style="margin-bottom: 0px">Profile: <a href="StructureDefinition-Ingredient-uv-epi.html">Ingredient (ePI)</a></p></div><p><b>identifier</b>: id: R12CBM0EIZ (OFFICIAL)</p><p><b>status</b>: active</p><p><b>for</b>: <a href="#ManufacturedItemDefinition_23fed712-2d60-461d-83a6-5fb939b2a939">See above (ManufacturedItemDefinition/23fed712-2d60-461d-83a6-5fb939b2a939)</a></p><p><b>role</b>: Excipient <span style="background: LightGoldenRodYellow; margin: 4px; border: 1px solid khaki"> (#100000072082)</span></p><h3>Manufacturers</h3><table class="grid"><tr><td>-</td><td><b>Manufacturer</b></td></tr><tr><td>*</td><td><a href="#Organization_85c5d81e-9d5a-4a15-8b9d-42bbbe0409c8">See above (Organization/85c5d81e-9d5a-4a15-8b9d-42bbbe0409c8)</a></td></tr></table><blockquote><p><b>substance</b></p></blockquote></div>
        </text>
        <identifier>
          <use value="official"/>
          <system value="https://gsrs.ncats.nih.gov/ginas/app/beta/"/>
          <value value="R12CBM0EIZ"/>
        </identifier>
        <status value="active"/>
        <for>
          <reference value="ManufacturedItemDefinition/23fed712-2d60-461d-83a6-5fb939b2a939"/>
        </for>
        <role>
          <coding>
            <system value="https://spor.ema.europa.eu/rmswi/"/>
            <code value="100000072082"/>
          </coding>
          <text value="Excipient"/>
        </role>
        <manufacturer>
          <manufacturer>
            <reference value="Organization/85c5d81e-9d5a-4a15-8b9d-42bbbe0409c8"/>
          </manufacturer>
        </manufacturer>
        <substance>
          <code>
            <concept>
              <coding>
                <system value="https://gsrs.ncats.nih.gov/ginas/app/beta/"/>
                <code value="R12CBM0EIZ"/>
                <display value="Carnauba wax"/>
              </coding>
            </concept>
          </code>
        </substance>
      </Ingredient>
    </resource>
  </entry>
  <entry>
    <resource>
      <Ingredient>
        <id value="32e98fc8-b8fb-4bd9-a4d3-2ce97c151d61"/>
        <meta>
          <profile value="http://hl7.eu/fhir/ig/gravitate-health/StructureDefinition/Ingredient-uv-epi"/>
        </meta>
        <text>
          <status value="generated"/><div xmlns="http://www.w3.org/1999/xhtml"><p><b>Generated Narrative</b></p><div style="display: inline-block; background-color: #d9e0e7; padding: 6px; margin: 4px; border: 1px solid #8da1b4; border-radius: 5px; line-height: 60%"><p style="margin-bottom: 0px">Resource "32e98fc8-b8fb-4bd9-a4d3-2ce97c151d61" </p><p style="margin-bottom: 0px">Profile: <a href="StructureDefinition-Ingredient-uv-epi.html">Ingredient (ePI)</a></p></div><p><b>identifier</b>: id: OP1R32D61U (OFFICIAL)</p><p><b>status</b>: active</p><p><b>for</b>: <a href="#ManufacturedItemDefinition_23fed712-2d60-461d-83a6-5fb939b2a939">See above (ManufacturedItemDefinition/23fed712-2d60-461d-83a6-5fb939b2a939)</a></p><p><b>role</b>: Excipient <span style="background: LightGoldenRodYellow; margin: 4px; border: 1px solid khaki"> (#100000072082)</span></p><h3>Manufacturers</h3><table class="grid"><tr><td>-</td><td><b>Manufacturer</b></td></tr><tr><td>*</td><td><a href="#Organization_85c5d81e-9d5a-4a15-8b9d-42bbbe0409c8">See above (Organization/85c5d81e-9d5a-4a15-8b9d-42bbbe0409c8)</a></td></tr></table><blockquote><p><b>substance</b></p></blockquote></div>
        </text>
        <identifier>
          <use value="official"/>
          <system value="https://gsrs.ncats.nih.gov/ginas/app/beta/"/>
          <value value="OP1R32D61U"/>
        </identifier>
        <status value="active"/>
        <for>
          <reference value="ManufacturedItemDefinition/23fed712-2d60-461d-83a6-5fb939b2a939"/>
        </for>
        <role>
          <coding>
            <system value="https://spor.ema.europa.eu/rmswi/"/>
            <code value="100000072082"/>
          </coding>
          <text value="Excipient"/>
        </role>
        <manufacturer>
          <manufacturer>
            <reference value="Organization/85c5d81e-9d5a-4a15-8b9d-42bbbe0409c8"/>
          </manufacturer>
        </manufacturer>
        <substance>
          <code>
            <concept>
              <coding>
                <system value="https://gsrs.ncats.nih.gov/ginas/app/beta/"/>
                <code value="OP1R32D61U"/>
                <display value="crystalline cellulose"/>
              </coding>
            </concept>
          </code>
        </substance>
      </Ingredient>
    </resource>
  </entry>
  <entry>
    <resource>
      <Ingredient>
        <id value="7b23dea1-ce14-4c13-8004-f297bb75eda0"/>
        <meta>
          <profile value="http://hl7.eu/fhir/ig/gravitate-health/StructureDefinition/Ingredient-uv-epi"/>
        </meta>
        <text>
          <status value="generated"/><div xmlns="http://www.w3.org/1999/xhtml"><p><b>Generated Narrative</b></p><div style="display: inline-block; background-color: #d9e0e7; padding: 6px; margin: 4px; border: 1px solid #8da1b4; border-radius: 5px; line-height: 60%"><p style="margin-bottom: 0px">Resource "7b23dea1-ce14-4c13-8004-f297bb75eda0" </p><p style="margin-bottom: 0px">Profile: <a href="StructureDefinition-Ingredient-uv-epi.html">Ingredient (ePI)</a></p></div><p><b>identifier</b>: id: 3OWL53L36A (OFFICIAL)</p><p><b>status</b>: active</p><p><b>for</b>: <a href="#ManufacturedItemDefinition_23fed712-2d60-461d-83a6-5fb939b2a939">See above (ManufacturedItemDefinition/23fed712-2d60-461d-83a6-5fb939b2a939)</a></p><p><b>role</b>: Excipient <span style="background: LightGoldenRodYellow; margin: 4px; border: 1px solid khaki"> (#100000072082)</span></p><h3>Manufacturers</h3><table class="grid"><tr><td>-</td><td><b>Manufacturer</b></td></tr><tr><td>*</td><td><a href="#Organization_85c5d81e-9d5a-4a15-8b9d-42bbbe0409c8">See above (Organization/85c5d81e-9d5a-4a15-8b9d-42bbbe0409c8)</a></td></tr></table><blockquote><p><b>substance</b></p></blockquote></div>
        </text>
        <identifier>
          <use value="official"/>
          <system value="https://gsrs.ncats.nih.gov/ginas/app/beta/"/>
          <value value="3OWL53L36A"/>
        </identifier>
        <status value="active"/>
        <for>
          <reference value="ManufacturedItemDefinition/23fed712-2d60-461d-83a6-5fb939b2a939"/>
        </for>
        <role>
          <coding>
            <system value="https://spor.ema.europa.eu/rmswi/"/>
            <code value="100000072082"/>
          </coding>
          <text value="Excipient"/>
        </role>
        <manufacturer>
          <manufacturer>
            <reference value="Organization/85c5d81e-9d5a-4a15-8b9d-42bbbe0409c8"/>
          </manufacturer>
        </manufacturer>
        <substance>
          <code>
            <concept>
              <coding>
                <system value="https://gsrs.ncats.nih.gov/ginas/app/beta/"/>
                <code value="3OWL53L36A"/>
                <display value="MANNITOL"/>
              </coding>
            </concept>
          </code>
        </substance>
      </Ingredient>
    </resource>
  </entry>
  <entry>
    <resource>
      <Ingredient>
        <id value="cc5753cd-e648-47d2-a135-503cd8a3e1da"/>
        <meta>
          <profile value="http://hl7.eu/fhir/ig/gravitate-health/StructureDefinition/Ingredient-uv-epi"/>
        </meta>
        <text>
          <status value="generated"/><div xmlns="http://www.w3.org/1999/xhtml"><p><b>Generated Narrative</b></p><div style="display: inline-block; background-color: #d9e0e7; padding: 6px; margin: 4px; border: 1px solid #8da1b4; border-radius: 5px; line-height: 60%"><p style="margin-bottom: 0px">Resource "cc5753cd-e648-47d2-a135-503cd8a3e1da" </p><p style="margin-bottom: 0px">Profile: <a href="StructureDefinition-Ingredient-uv-epi.html">Ingredient (ePI)</a></p></div><p><b>identifier</b>: id: 3NXW29V3WO (OFFICIAL)</p><p><b>status</b>: active</p><p><b>for</b>: <a href="#ManufacturedItemDefinition_23fed712-2d60-461d-83a6-5fb939b2a939">See above (ManufacturedItemDefinition/23fed712-2d60-461d-83a6-5fb939b2a939)</a></p><p><b>role</b>: Excipient <span style="background: LightGoldenRodYellow; margin: 4px; border: 1px solid khaki"> (#100000072082)</span></p><h3>Manufacturers</h3><table class="grid"><tr><td>-</td><td><b>Manufacturer</b></td></tr><tr><td>*</td><td><a href="#Organization_85c5d81e-9d5a-4a15-8b9d-42bbbe0409c8">See above (Organization/85c5d81e-9d5a-4a15-8b9d-42bbbe0409c8)</a></td></tr></table><blockquote><p><b>substance</b></p></blockquote></div>
        </text>
        <identifier>
          <use value="official"/>
          <system value="https://gsrs.ncats.nih.gov/ginas/app/beta/"/>
          <value value="3NXW29V3WO"/>
        </identifier>
        <status value="active"/>
        <for>
          <reference value="ManufacturedItemDefinition/23fed712-2d60-461d-83a6-5fb939b2a939"/>
        </for>
        <role>
          <coding>
            <system value="https://spor.ema.europa.eu/rmswi/"/>
            <code value="100000072082"/>
          </coding>
          <text value="Excipient"/>
        </role>
        <manufacturer>
          <manufacturer>
            <reference value="Organization/85c5d81e-9d5a-4a15-8b9d-42bbbe0409c8"/>
          </manufacturer>
        </manufacturer>
        <substance>
          <code>
            <concept>
              <coding>
                <system value="https://gsrs.ncats.nih.gov/ginas/app/beta/"/>
                <code value="3NXW29V3WO"/>
                <display value="HYPROMELLOSE, UNSPECIFIED "/>
              </coding>
            </concept>
          </code>
        </substance>
      </Ingredient>
    </resource>
  </entry>
  <entry>
    <resource>
      <Ingredient>
        <id value="01f6666c-b966-4372-ba61-9ee902912dd8"/>
        <meta>
          <profile value="http://hl7.eu/fhir/ig/gravitate-health/StructureDefinition/Ingredient-uv-epi"/>
        </meta>
        <text>
          <status value="generated"/><div xmlns="http://www.w3.org/1999/xhtml"><p><b>Generated Narrative</b></p><div style="display: inline-block; background-color: #d9e0e7; padding: 6px; margin: 4px; border: 1px solid #8da1b4; border-radius: 5px; line-height: 60%"><p style="margin-bottom: 0px">Resource "01f6666c-b966-4372-ba61-9ee902912dd8" </p><p style="margin-bottom: 0px">Profile: <a href="StructureDefinition-Ingredient-uv-epi.html">Ingredient (ePI)</a></p></div><p><b>identifier</b>: id: ETJ7Z6XBU4 (OFFICIAL)</p><p><b>status</b>: active</p><p><b>for</b>: <a href="#ManufacturedItemDefinition_23fed712-2d60-461d-83a6-5fb939b2a939">See above (ManufacturedItemDefinition/23fed712-2d60-461d-83a6-5fb939b2a939)</a></p><p><b>role</b>: Excipient <span style="background: LightGoldenRodYellow; margin: 4px; border: 1px solid khaki"> (#100000072082)</span></p><h3>Manufacturers</h3><table class="grid"><tr><td>-</td><td><b>Manufacturer</b></td></tr><tr><td>*</td><td><a href="#Organization_85c5d81e-9d5a-4a15-8b9d-42bbbe0409c8">See above (Organization/85c5d81e-9d5a-4a15-8b9d-42bbbe0409c8)</a></td></tr></table><blockquote><p><b>substance</b></p></blockquote></div>
        </text>
        <identifier>
          <use value="official"/>
          <system value="https://gsrs.ncats.nih.gov/ginas/app/beta/"/>
          <value value="ETJ7Z6XBU4"/>
        </identifier>
        <status value="active"/>
        <for>
          <reference value="ManufacturedItemDefinition/23fed712-2d60-461d-83a6-5fb939b2a939"/>
        </for>
        <role>
          <coding>
            <system value="https://spor.ema.europa.eu/rmswi/"/>
            <code value="100000072082"/>
          </coding>
          <text value="Excipient"/>
        </role>
        <manufacturer>
          <manufacturer>
            <reference value="Organization/85c5d81e-9d5a-4a15-8b9d-42bbbe0409c8"/>
          </manufacturer>
        </manufacturer>
        <substance>
          <code>
            <concept>
              <coding>
                <system value="https://gsrs.ncats.nih.gov/ginas/app/beta/"/>
                <code value="ETJ7Z6XBU4"/>
                <display value="light anhydrous silicic acid"/>
              </coding>
            </concept>
          </code>
        </substance>
      </Ingredient>
    </resource>
  </entry>
  <entry>
    <resource>
      <Ingredient>
        <id value="db5e392b-e7b2-47dc-829c-ee5182986dca"/>
        <meta>
          <profile value="http://hl7.eu/fhir/ig/gravitate-health/StructureDefinition/Ingredient-uv-epi"/>
        </meta>
        <text>
          <status value="generated"/><div xmlns="http://www.w3.org/1999/xhtml"><p><b>Generated Narrative</b></p><div style="display: inline-block; background-color: #d9e0e7; padding: 6px; margin: 4px; border: 1px solid #8da1b4; border-radius: 5px; line-height: 60%"><p style="margin-bottom: 0px">Resource "db5e392b-e7b2-47dc-829c-ee5182986dca" </p><p style="margin-bottom: 0px">Profile: <a href="StructureDefinition-Ingredient-uv-epi.html">Ingredient (ePI)</a></p></div><p><b>identifier</b>: id: 0E53J927NA (OFFICIAL)</p><p><b>status</b>: active</p><p><b>for</b>: <a href="#ManufacturedItemDefinition_23fed712-2d60-461d-83a6-5fb939b2a939">See above (ManufacturedItemDefinition/23fed712-2d60-461d-83a6-5fb939b2a939)</a></p><p><b>role</b>: Excipient <span style="background: LightGoldenRodYellow; margin: 4px; border: 1px solid khaki"> (#100000072082)</span></p><h3>Manufacturers</h3><table class="grid"><tr><td>-</td><td><b>Manufacturer</b></td></tr><tr><td>*</td><td><a href="#Organization_85c5d81e-9d5a-4a15-8b9d-42bbbe0409c8">See above (Organization/85c5d81e-9d5a-4a15-8b9d-42bbbe0409c8)</a></td></tr></table><blockquote><p><b>substance</b></p></blockquote></div>
        </text>
        <identifier>
          <use value="official"/>
          <system value="https://gsrs.ncats.nih.gov/ginas/app/beta/"/>
          <value value="0E53J927NA"/>
        </identifier>
        <status value="active"/>
        <for>
          <reference value="ManufacturedItemDefinition/23fed712-2d60-461d-83a6-5fb939b2a939"/>
        </for>
        <role>
          <coding>
            <system value="https://spor.ema.europa.eu/rmswi/"/>
            <code value="100000072082"/>
          </coding>
          <text value="Excipient"/>
        </role>
        <manufacturer>
          <manufacturer>
            <reference value="Organization/85c5d81e-9d5a-4a15-8b9d-42bbbe0409c8"/>
          </manufacturer>
        </manufacturer>
        <substance>
          <code>
            <concept>
              <coding>
                <system value="https://gsrs.ncats.nih.gov/ginas/app/beta/"/>
                <code value="0E53J927NA"/>
                <display value="MAGNESIUM CARBONATE"/>
              </coding>
            </concept>
          </code>
        </substance>
      </Ingredient>
    </resource>
  </entry>
  <entry>
    <resource>
      <Ingredient>
        <id value="5acc6759-a7f7-4380-ab2e-ad72e8587598"/>
        <meta>
          <profile value="http://hl7.eu/fhir/ig/gravitate-health/StructureDefinition/Ingredient-uv-epi"/>
        </meta>
        <text>
          <status value="generated"/><div xmlns="http://www.w3.org/1999/xhtml"><p><b>Generated Narrative</b></p><div style="display: inline-block; background-color: #d9e0e7; padding: 6px; margin: 4px; border: 1px solid #8da1b4; border-radius: 5px; line-height: 60%"><p style="margin-bottom: 0px">Resource "5acc6759-a7f7-4380-ab2e-ad72e8587598" </p><p style="margin-bottom: 0px">Profile: <a href="StructureDefinition-Ingredient-uv-epi.html">Ingredient (ePI)</a></p></div><p><b>identifier</b>: id: 70097M6I30 (OFFICIAL)</p><p><b>status</b>: active</p><p><b>for</b>: <a href="#ManufacturedItemDefinition_23fed712-2d60-461d-83a6-5fb939b2a939">See above (ManufacturedItemDefinition/23fed712-2d60-461d-83a6-5fb939b2a939)</a></p><p><b>role</b>: Excipient <span style="background: LightGoldenRodYellow; margin: 4px; border: 1px solid khaki"> (#100000072082)</span></p><h3>Manufacturers</h3><table class="grid"><tr><td>-</td><td><b>Manufacturer</b></td></tr><tr><td>*</td><td><a href="#Organization_85c5d81e-9d5a-4a15-8b9d-42bbbe0409c8">See above (Organization/85c5d81e-9d5a-4a15-8b9d-42bbbe0409c8)</a></td></tr></table><blockquote><p><b>substance</b></p></blockquote></div>
        </text>
        <identifier>
          <use value="official"/>
          <system value="https://gsrs.ncats.nih.gov/ginas/app/beta/"/>
          <value value="70097M6I30"/>
        </identifier>
        <status value="active"/>
        <for>
          <reference value="ManufacturedItemDefinition/23fed712-2d60-461d-83a6-5fb939b2a939"/>
        </for>
        <role>
          <coding>
            <system value="https://spor.ema.europa.eu/rmswi/"/>
            <code value="100000072082"/>
          </coding>
          <text value="Excipient"/>
        </role>
        <manufacturer>
          <manufacturer>
            <reference value="Organization/85c5d81e-9d5a-4a15-8b9d-42bbbe0409c8"/>
          </manufacturer>
        </manufacturer>
        <substance>
          <code>
            <concept>
              <coding>
                <system value="https://gsrs.ncats.nih.gov/ginas/app/beta/"/>
                <code value="70097M6I30"/>
                <display value="MAGNESIUM STEARATE"/>
              </coding>
            </concept>
          </code>
        </substance>
      </Ingredient>
    </resource>
  </entry>
  <entry>
    <resource>
      <Ingredient>
        <id value="5f2c1669-3991-4cc2-b252-958b738d5df8"/>
        <meta>
          <profile value="http://hl7.eu/fhir/ig/gravitate-health/StructureDefinition/Ingredient-uv-epi"/>
        </meta>
        <text>
          <status value="generated"/><div xmlns="http://www.w3.org/1999/xhtml"><p><b>Generated Narrative</b></p><div style="display: inline-block; background-color: #d9e0e7; padding: 6px; margin: 4px; border: 1px solid #8da1b4; border-radius: 5px; line-height: 60%"><p style="margin-bottom: 0px">Resource "5f2c1669-3991-4cc2-b252-958b738d5df8" </p><p style="margin-bottom: 0px">Profile: <a href="StructureDefinition-Ingredient-uv-epi.html">Ingredient (ePI)</a></p></div><p><b>identifier</b>: id: A2I8C7HI9T (OFFICIAL)</p><p><b>status</b>: active</p><p><b>for</b>: <a href="#ManufacturedItemDefinition_23fed712-2d60-461d-83a6-5fb939b2a939">See above (ManufacturedItemDefinition/23fed712-2d60-461d-83a6-5fb939b2a939)</a></p><p><b>role</b>: Excipient <span style="background: LightGoldenRodYellow; margin: 4px; border: 1px solid khaki"> (#100000072082)</span></p><h3>Manufacturers</h3><table class="grid"><tr><td>-</td><td><b>Manufacturer</b></td></tr><tr><td>*</td><td><a href="#Organization_85c5d81e-9d5a-4a15-8b9d-42bbbe0409c8">See above (Organization/85c5d81e-9d5a-4a15-8b9d-42bbbe0409c8)</a></td></tr></table><blockquote><p><b>substance</b></p></blockquote></div>
        </text>
        <identifier>
          <use value="official"/>
          <system value="https://gsrs.ncats.nih.gov/ginas/app/beta/"/>
          <value value="A2I8C7HI9T"/>
        </identifier>
        <status value="active"/>
        <for>
          <reference value="ManufacturedItemDefinition/23fed712-2d60-461d-83a6-5fb939b2a939"/>
        </for>
        <role>
          <coding>
            <system value="https://spor.ema.europa.eu/rmswi/"/>
            <code value="100000072082"/>
          </coding>
          <text value="Excipient"/>
        </role>
        <manufacturer>
          <manufacturer>
            <reference value="Organization/85c5d81e-9d5a-4a15-8b9d-42bbbe0409c8"/>
          </manufacturer>
        </manufacturer>
        <substance>
          <code>
            <concept>
              <coding>
                <system value="https://gsrs.ncats.nih.gov/ginas/app/beta/"/>
                <code value="A2I8C7HI9T"/>
                <display value="METHYLPARABEN"/>
              </coding>
            </concept>
          </code>
        </substance>
      </Ingredient>
    </resource>
  </entry>
  <entry>
    <resource>
      <Ingredient>
        <id value="0c81c330-cf57-45c2-9ca2-559aea4c8060"/>
        <meta>
          <profile value="http://hl7.eu/fhir/ig/gravitate-health/StructureDefinition/Ingredient-uv-epi"/>
        </meta>
        <text>
          <status value="generated"/><div xmlns="http://www.w3.org/1999/xhtml"><p><b>Generated Narrative</b></p><div style="display: inline-block; background-color: #d9e0e7; padding: 6px; margin: 4px; border: 1px solid #8da1b4; border-radius: 5px; line-height: 60%"><p style="margin-bottom: 0px">Resource "0c81c330-cf57-45c2-9ca2-559aea4c8060" </p><p style="margin-bottom: 0px">Profile: <a href="StructureDefinition-Ingredient-uv-epi.html">Ingredient (ePI)</a></p></div><p><b>identifier</b>: id: 30IQX730WE (OFFICIAL)</p><p><b>status</b>: active</p><p><b>for</b>: <a href="#ManufacturedItemDefinition_23fed712-2d60-461d-83a6-5fb939b2a939">See above (ManufacturedItemDefinition/23fed712-2d60-461d-83a6-5fb939b2a939)</a></p><p><b>role</b>: Excipient <span style="background: LightGoldenRodYellow; margin: 4px; border: 1px solid khaki"> (#100000072082)</span></p><h3>Manufacturers</h3><table class="grid"><tr><td>-</td><td><b>Manufacturer</b></td></tr><tr><td>*</td><td><a href="#Organization_85c5d81e-9d5a-4a15-8b9d-42bbbe0409c8">See above (Organization/85c5d81e-9d5a-4a15-8b9d-42bbbe0409c8)</a></td></tr></table><blockquote><p><b>substance</b></p></blockquote></div>
        </text>
        <identifier>
          <use value="official"/>
          <system value="https://gsrs.ncats.nih.gov/ginas/app/beta/"/>
          <value value="30IQX730WE"/>
        </identifier>
        <status value="active"/>
        <for>
          <reference value="ManufacturedItemDefinition/23fed712-2d60-461d-83a6-5fb939b2a939"/>
        </for>
        <role>
          <coding>
            <system value="https://spor.ema.europa.eu/rmswi/"/>
            <code value="100000072082"/>
          </coding>
          <text value="Excipient"/>
        </role>
        <manufacturer>
          <manufacturer>
            <reference value="Organization/85c5d81e-9d5a-4a15-8b9d-42bbbe0409c8"/>
          </manufacturer>
        </manufacturer>
        <substance>
          <code>
            <concept>
              <coding>
                <system value="https://gsrs.ncats.nih.gov/ginas/app/beta/"/>
                <code value="30IQX730WE"/>
                <display value="POLYETHYLENE GLYCOL 6000"/>
              </coding>
            </concept>
          </code>
        </substance>
      </Ingredient>
    </resource>
  </entry>
  <entry>
    <resource>
      <Ingredient>
        <id value="6708560e-135d-4b2a-afde-9e3b03f27939"/>
        <meta>
          <profile value="http://hl7.eu/fhir/ig/gravitate-health/StructureDefinition/Ingredient-uv-epi"/>
        </meta>
        <text>
          <status value="generated"/><div xmlns="http://www.w3.org/1999/xhtml"><p><b>Generated Narrative</b></p><div style="display: inline-block; background-color: #d9e0e7; padding: 6px; margin: 4px; border: 1px solid #8da1b4; border-radius: 5px; line-height: 60%"><p style="margin-bottom: 0px">Resource "6708560e-135d-4b2a-afde-9e3b03f27939" </p><p style="margin-bottom: 0px">Profile: <a href="StructureDefinition-Ingredient-uv-epi.html">Ingredient (ePI)</a></p></div><p><b>identifier</b>: id: 6OZP39ZG8H (OFFICIAL)</p><p><b>status</b>: active</p><p><b>for</b>: <a href="#ManufacturedItemDefinition_23fed712-2d60-461d-83a6-5fb939b2a939">See above (ManufacturedItemDefinition/23fed712-2d60-461d-83a6-5fb939b2a939)</a></p><p><b>role</b>: Excipient <span style="background: LightGoldenRodYellow; margin: 4px; border: 1px solid khaki"> (#100000072082)</span></p><h3>Manufacturers</h3><table class="grid"><tr><td>-</td><td><b>Manufacturer</b></td></tr><tr><td>*</td><td><a href="#Organization_85c5d81e-9d5a-4a15-8b9d-42bbbe0409c8">See above (Organization/85c5d81e-9d5a-4a15-8b9d-42bbbe0409c8)</a></td></tr></table><blockquote><p><b>substance</b></p></blockquote></div>
        </text>
        <identifier>
          <use value="official"/>
          <system value="https://gsrs.ncats.nih.gov/ginas/app/beta/"/>
          <value value="6OZP39ZG8H"/>
        </identifier>
        <status value="active"/>
        <for>
          <reference value="ManufacturedItemDefinition/23fed712-2d60-461d-83a6-5fb939b2a939"/>
        </for>
        <role>
          <coding>
            <system value="https://spor.ema.europa.eu/rmswi/"/>
            <code value="100000072082"/>
          </coding>
          <text value="Excipient"/>
        </role>
        <manufacturer>
          <manufacturer>
            <reference value="Organization/85c5d81e-9d5a-4a15-8b9d-42bbbe0409c8"/>
          </manufacturer>
        </manufacturer>
        <substance>
          <code>
            <concept>
              <coding>
                <system value="https://gsrs.ncats.nih.gov/ginas/app/beta/"/>
                <code value="6OZP39ZG8H"/>
                <display value="POLYSORBATE 80"/>
              </coding>
            </concept>
          </code>
        </substance>
      </Ingredient>
    </resource>
  </entry>
  <entry>
    <resource>
      <Ingredient>
        <id value="733fb580-1139-4188-aff8-ad6efe243555"/>
        <meta>
          <profile value="http://hl7.eu/fhir/ig/gravitate-health/StructureDefinition/Ingredient-uv-epi"/>
        </meta>
        <text>
          <status value="generated"/><div xmlns="http://www.w3.org/1999/xhtml"><p><b>Generated Narrative</b></p><div style="display: inline-block; background-color: #d9e0e7; padding: 6px; margin: 4px; border: 1px solid #8da1b4; border-radius: 5px; line-height: 60%"><p style="margin-bottom: 0px">Resource "733fb580-1139-4188-aff8-ad6efe243555" </p><p style="margin-bottom: 0px">Profile: <a href="StructureDefinition-Ingredient-uv-epi.html">Ingredient (ePI)</a></p></div><p><b>identifier</b>: id: 532B59J990 (OFFICIAL)</p><p><b>status</b>: active</p><p><b>for</b>: <a href="#ManufacturedItemDefinition_23fed712-2d60-461d-83a6-5fb939b2a939">See above (ManufacturedItemDefinition/23fed712-2d60-461d-83a6-5fb939b2a939)</a></p><p><b>role</b>: Excipient <span style="background: LightGoldenRodYellow; margin: 4px; border: 1px solid khaki"> (#100000072082)</span></p><h3>Manufacturers</h3><table class="grid"><tr><td>-</td><td><b>Manufacturer</b></td></tr><tr><td>*</td><td><a href="#Organization_85c5d81e-9d5a-4a15-8b9d-42bbbe0409c8">See above (Organization/85c5d81e-9d5a-4a15-8b9d-42bbbe0409c8)</a></td></tr></table><blockquote><p><b>substance</b></p></blockquote></div>
        </text>
        <identifier>
          <use value="official"/>
          <system value="https://gsrs.ncats.nih.gov/ginas/app/beta/"/>
          <value value="532B59J990"/>
        </identifier>
        <status value="active"/>
        <for>
          <reference value="ManufacturedItemDefinition/23fed712-2d60-461d-83a6-5fb939b2a939"/>
        </for>
        <role>
          <coding>
            <system value="https://spor.ema.europa.eu/rmswi/"/>
            <code value="100000072082"/>
          </coding>
          <text value="Excipient"/>
        </role>
        <manufacturer>
          <manufacturer>
            <reference value="Organization/85c5d81e-9d5a-4a15-8b9d-42bbbe0409c8"/>
          </manufacturer>
        </manufacturer>
        <substance>
          <code>
            <concept>
              <coding>
                <system value="https://gsrs.ncats.nih.gov/ginas/app/beta/"/>
                <code value="532B59J990"/>
                <display value="POLYVINYL ALCOHOL, UNSPECIFIED"/>
              </coding>
            </concept>
          </code>
        </substance>
      </Ingredient>
    </resource>
  </entry>
  <entry>
    <resource>
      <Ingredient>
        <id value="c5a3cb57-3f3e-4309-ae34-0926300de57e"/>
        <meta>
          <profile value="http://hl7.eu/fhir/ig/gravitate-health/StructureDefinition/Ingredient-uv-epi"/>
        </meta>
        <text>
          <status value="generated"/><div xmlns="http://www.w3.org/1999/xhtml"><p><b>Generated Narrative</b></p><div style="display: inline-block; background-color: #d9e0e7; padding: 6px; margin: 4px; border: 1px solid #8da1b4; border-radius: 5px; line-height: 60%"><p style="margin-bottom: 0px">Resource "c5a3cb57-3f3e-4309-ae34-0926300de57e" </p><p style="margin-bottom: 0px">Profile: <a href="StructureDefinition-Ingredient-uv-epi.html">Ingredient (ePI)</a></p></div><p><b>identifier</b>: id: C151H8M554 (OFFICIAL)</p><p><b>status</b>: active</p><p><b>for</b>: <a href="#ManufacturedItemDefinition_23fed712-2d60-461d-83a6-5fb939b2a939">See above (ManufacturedItemDefinition/23fed712-2d60-461d-83a6-5fb939b2a939)</a></p><p><b>role</b>: Excipient <span style="background: LightGoldenRodYellow; margin: 4px; border: 1px solid khaki"> (#100000072082)</span></p><h3>Manufacturers</h3><table class="grid"><tr><td>-</td><td><b>Manufacturer</b></td></tr><tr><td>*</td><td><a href="#Organization_85c5d81e-9d5a-4a15-8b9d-42bbbe0409c8">See above (Organization/85c5d81e-9d5a-4a15-8b9d-42bbbe0409c8)</a></td></tr></table><blockquote><p><b>substance</b></p></blockquote></div>
        </text>
        <identifier>
          <use value="official"/>
          <system value="https://gsrs.ncats.nih.gov/ginas/app/beta/"/>
          <value value="C151H8M554"/>
        </identifier>
        <status value="active"/>
        <for>
          <reference value="ManufacturedItemDefinition/23fed712-2d60-461d-83a6-5fb939b2a939"/>
        </for>
        <role>
          <coding>
            <system value="https://spor.ema.europa.eu/rmswi/"/>
            <code value="100000072082"/>
          </coding>
          <text value="Excipient"/>
        </role>
        <manufacturer>
          <manufacturer>
            <reference value="Organization/85c5d81e-9d5a-4a15-8b9d-42bbbe0409c8"/>
          </manufacturer>
        </manufacturer>
        <substance>
          <code>
            <concept>
              <coding>
                <system value="https://gsrs.ncats.nih.gov/ginas/app/beta/"/>
                <code value="C151H8M554"/>
                <display value="SUCROSE"/>
              </coding>
            </concept>
          </code>
        </substance>
      </Ingredient>
    </resource>
  </entry>
  <entry>
    <resource>
      <Ingredient>
        <id value="16dc4148-5296-4f7a-8576-2e6bf9dde736"/>
        <meta>
          <profile value="http://hl7.eu/fhir/ig/gravitate-health/StructureDefinition/Ingredient-uv-epi"/>
        </meta>
        <text>
          <status value="generated"/><div xmlns="http://www.w3.org/1999/xhtml"><p><b>Generated Narrative</b></p><div style="display: inline-block; background-color: #d9e0e7; padding: 6px; margin: 4px; border: 1px solid #8da1b4; border-radius: 5px; line-height: 60%"><p style="margin-bottom: 0px">Resource "16dc4148-5296-4f7a-8576-2e6bf9dde736" </p><p style="margin-bottom: 0px">Profile: <a href="StructureDefinition-Ingredient-uv-epi.html">Ingredient (ePI)</a></p></div><p><b>identifier</b>: id: ETJ7Z6XBU4 (OFFICIAL)</p><p><b>status</b>: active</p><p><b>for</b>: <a href="#ManufacturedItemDefinition_23fed712-2d60-461d-83a6-5fb939b2a939">See above (ManufacturedItemDefinition/23fed712-2d60-461d-83a6-5fb939b2a939)</a></p><p><b>role</b>: Excipient <span style="background: LightGoldenRodYellow; margin: 4px; border: 1px solid khaki"> (#100000072082)</span></p><h3>Manufacturers</h3><table class="grid"><tr><td>-</td><td><b>Manufacturer</b></td></tr><tr><td>*</td><td><a href="#Organization_85c5d81e-9d5a-4a15-8b9d-42bbbe0409c8">See above (Organization/85c5d81e-9d5a-4a15-8b9d-42bbbe0409c8)</a></td></tr></table><blockquote><p><b>substance</b></p></blockquote></div>
        </text>
        <identifier>
          <use value="official"/>
          <system value="https://gsrs.ncats.nih.gov/ginas/app/beta/"/>
          <value value="ETJ7Z6XBU4"/>
        </identifier>
        <status value="active"/>
        <for>
          <reference value="ManufacturedItemDefinition/23fed712-2d60-461d-83a6-5fb939b2a939"/>
        </for>
        <role>
          <coding>
            <system value="https://spor.ema.europa.eu/rmswi/"/>
            <code value="100000072082"/>
          </coding>
          <text value="Excipient"/>
        </role>
        <manufacturer>
          <manufacturer>
            <reference value="Organization/85c5d81e-9d5a-4a15-8b9d-42bbbe0409c8"/>
          </manufacturer>
        </manufacturer>
        <substance>
          <code>
            <concept>
              <coding>
                <system value="https://gsrs.ncats.nih.gov/ginas/app/beta/"/>
                <code value="ETJ7Z6XBU4"/>
                <display value="SILICON DIOXIDE"/>
              </coding>
            </concept>
          </code>
        </substance>
      </Ingredient>
    </resource>
  </entry>
  <entry>
    <resource>
      <Ingredient>
        <id value="b254f961-61ca-43f9-b3f9-5b0b5d4406a9"/>
        <meta>
          <profile value="http://hl7.eu/fhir/ig/gravitate-health/StructureDefinition/Ingredient-uv-epi"/>
        </meta>
        <text>
          <status value="generated"/><div xmlns="http://www.w3.org/1999/xhtml"><p><b>Generated Narrative</b></p><div style="display: inline-block; background-color: #d9e0e7; padding: 6px; margin: 4px; border: 1px solid #8da1b4; border-radius: 5px; line-height: 60%"><p style="margin-bottom: 0px">Resource "b254f961-61ca-43f9-b3f9-5b0b5d4406a9" </p><p style="margin-bottom: 0px">Profile: <a href="StructureDefinition-Ingredient-uv-epi.html">Ingredient (ePI)</a></p></div><p><b>identifier</b>: id: 5856J3G2A2 (OFFICIAL)</p><p><b>status</b>: active</p><p><b>for</b>: <a href="#ManufacturedItemDefinition_23fed712-2d60-461d-83a6-5fb939b2a939">See above (ManufacturedItemDefinition/23fed712-2d60-461d-83a6-5fb939b2a939)</a></p><p><b>role</b>: Excipient <span style="background: LightGoldenRodYellow; margin: 4px; border: 1px solid khaki"> (#100000072082)</span></p><h3>Manufacturers</h3><table class="grid"><tr><td>-</td><td><b>Manufacturer</b></td></tr><tr><td>*</td><td><a href="#Organization_85c5d81e-9d5a-4a15-8b9d-42bbbe0409c8">See above (Organization/85c5d81e-9d5a-4a15-8b9d-42bbbe0409c8)</a></td></tr></table><blockquote><p><b>substance</b></p></blockquote></div>
        </text>
        <identifier>
          <use value="official"/>
          <system value="https://gsrs.ncats.nih.gov/ginas/app/beta/"/>
          <value value="5856J3G2A2"/>
        </identifier>
        <status value="active"/>
        <for>
          <reference value="ManufacturedItemDefinition/23fed712-2d60-461d-83a6-5fb939b2a939"/>
        </for>
        <role>
          <coding>
            <system value="https://spor.ema.europa.eu/rmswi/"/>
            <code value="100000072082"/>
          </coding>
          <text value="Excipient"/>
        </role>
        <manufacturer>
          <manufacturer>
            <reference value="Organization/85c5d81e-9d5a-4a15-8b9d-42bbbe0409c8"/>
          </manufacturer>
        </manufacturer>
        <substance>
          <code>
            <concept>
              <coding>
                <system value="https://gsrs.ncats.nih.gov/ginas/app/beta/"/>
                <code value="5856J3G2A2"/>
                <display value="SODIUM STARCH GLYCOLATE TYPE A POTATO"/>
              </coding>
            </concept>
          </code>
        </substance>
      </Ingredient>
    </resource>
  </entry>
  <entry>
    <resource>
      <Ingredient>
        <id value="d8d6a066-5358-42b2-ab97-de99c90af141"/>
        <meta>
          <profile value="http://hl7.eu/fhir/ig/gravitate-health/StructureDefinition/Ingredient-uv-epi"/>
        </meta>
        <text>
          <status value="generated"/><div xmlns="http://www.w3.org/1999/xhtml"><p><b>Generated Narrative</b></p><div style="display: inline-block; background-color: #d9e0e7; padding: 6px; margin: 4px; border: 1px solid #8da1b4; border-radius: 5px; line-height: 60%"><p style="margin-bottom: 0px">Resource "d8d6a066-5358-42b2-ab97-de99c90af141" </p><p style="margin-bottom: 0px">Profile: <a href="StructureDefinition-Ingredient-uv-epi.html">Ingredient (ePI)</a></p></div><p><b>identifier</b>: id: 5M631N9V0S (OFFICIAL)</p><p><b>status</b>: active</p><p><b>for</b>: <a href="#ManufacturedItemDefinition_23fed712-2d60-461d-83a6-5fb939b2a939">See above (ManufacturedItemDefinition/23fed712-2d60-461d-83a6-5fb939b2a939)</a></p><p><b>role</b>: Excipient <span style="background: LightGoldenRodYellow; margin: 4px; border: 1px solid khaki"> (#100000072082)</span></p><h3>Manufacturers</h3><table class="grid"><tr><td>-</td><td><b>Manufacturer</b></td></tr><tr><td>*</td><td><a href="#Organization_85c5d81e-9d5a-4a15-8b9d-42bbbe0409c8">See above (Organization/85c5d81e-9d5a-4a15-8b9d-42bbbe0409c8)</a></td></tr></table><blockquote><p><b>substance</b></p></blockquote></div>
        </text>
        <identifier>
          <use value="official"/>
          <system value="https://gsrs.ncats.nih.gov/ginas/app/beta/"/>
          <value value="5M631N9V0S"/>
        </identifier>
        <status value="active"/>
        <for>
          <reference value="ManufacturedItemDefinition/23fed712-2d60-461d-83a6-5fb939b2a939"/>
        </for>
        <role>
          <coding>
            <system value="https://spor.ema.europa.eu/rmswi/"/>
            <code value="100000072082"/>
          </coding>
          <text value="Excipient"/>
        </role>
        <manufacturer>
          <manufacturer>
            <reference value="Organization/85c5d81e-9d5a-4a15-8b9d-42bbbe0409c8"/>
          </manufacturer>
        </manufacturer>
        <substance>
          <code>
            <concept>
              <coding>
                <system value="https://gsrs.ncats.nih.gov/ginas/app/beta/"/>
                <code value="5M631N9V0S"/>
                <display value="synthetic wax"/>
              </coding>
            </concept>
          </code>
        </substance>
      </Ingredient>
    </resource>
  </entry>
  <entry>
    <resource>
      <Ingredient>
        <id value="e057aea0-3ef3-4cd8-8a33-fa73c6df1602"/>
        <meta>
          <profile value="http://hl7.eu/fhir/ig/gravitate-health/StructureDefinition/Ingredient-uv-epi"/>
        </meta>
        <text>
          <status value="generated"/><div xmlns="http://www.w3.org/1999/xhtml"><p><b>Generated Narrative</b></p><div style="display: inline-block; background-color: #d9e0e7; padding: 6px; margin: 4px; border: 1px solid #8da1b4; border-radius: 5px; line-height: 60%"><p style="margin-bottom: 0px">Resource "e057aea0-3ef3-4cd8-8a33-fa73c6df1602" </p><p style="margin-bottom: 0px">Profile: <a href="StructureDefinition-Ingredient-uv-epi.html">Ingredient (ePI)</a></p></div><p><b>identifier</b>: id: 7SEV7J4R1U (OFFICIAL)</p><p><b>status</b>: active</p><p><b>for</b>: <a href="#ManufacturedItemDefinition_23fed712-2d60-461d-83a6-5fb939b2a939">See above (ManufacturedItemDefinition/23fed712-2d60-461d-83a6-5fb939b2a939)</a></p><p><b>role</b>: Excipient <span style="background: LightGoldenRodYellow; margin: 4px; border: 1px solid khaki"> (#100000072082)</span></p><h3>Manufacturers</h3><table class="grid"><tr><td>-</td><td><b>Manufacturer</b></td></tr><tr><td>*</td><td><a href="#Organization_85c5d81e-9d5a-4a15-8b9d-42bbbe0409c8">See above (Organization/85c5d81e-9d5a-4a15-8b9d-42bbbe0409c8)</a></td></tr></table><blockquote><p><b>substance</b></p></blockquote></div>
        </text>
        <identifier>
          <use value="official"/>
          <system value="https://gsrs.ncats.nih.gov/ginas/app/beta/"/>
          <value value="7SEV7J4R1U"/>
        </identifier>
        <status value="active"/>
        <for>
          <reference value="ManufacturedItemDefinition/23fed712-2d60-461d-83a6-5fb939b2a939"/>
        </for>
        <role>
          <coding>
            <system value="https://spor.ema.europa.eu/rmswi/"/>
            <code value="100000072082"/>
          </coding>
          <text value="Excipient"/>
        </role>
        <manufacturer>
          <manufacturer>
            <reference value="Organization/85c5d81e-9d5a-4a15-8b9d-42bbbe0409c8"/>
          </manufacturer>
        </manufacturer>
        <substance>
          <code>
            <concept>
              <coding>
                <system value="https://gsrs.ncats.nih.gov/ginas/app/beta/"/>
                <code value="7SEV7J4R1U"/>
                <display value="talc"/>
              </coding>
            </concept>
          </code>
        </substance>
      </Ingredient>
    </resource>
  </entry>
  <entry>
    <resource>
      <Ingredient>
        <id value="854be59d-070a-44d7-a82e-bbb83200dc6a"/>
        <meta>
          <profile value="http://hl7.eu/fhir/ig/gravitate-health/StructureDefinition/Ingredient-uv-epi"/>
        </meta>
        <text>
          <status value="generated"/><div xmlns="http://www.w3.org/1999/xhtml"><p><b>Generated Narrative</b></p><div style="display: inline-block; background-color: #d9e0e7; padding: 6px; margin: 4px; border: 1px solid #8da1b4; border-radius: 5px; line-height: 60%"><p style="margin-bottom: 0px">Resource "854be59d-070a-44d7-a82e-bbb83200dc6a" </p><p style="margin-bottom: 0px">Profile: <a href="StructureDefinition-Ingredient-uv-epi.html">Ingredient (ePI)</a></p></div><p><b>identifier</b>: id: 15FIX9V2JP (OFFICIAL)</p><p><b>status</b>: active</p><p><b>for</b>: <a href="#ManufacturedItemDefinition_23fed712-2d60-461d-83a6-5fb939b2a939">See above (ManufacturedItemDefinition/23fed712-2d60-461d-83a6-5fb939b2a939)</a></p><p><b>role</b>: Excipient <span style="background: LightGoldenRodYellow; margin: 4px; border: 1px solid khaki"> (#100000072082)</span></p><h3>Manufacturers</h3><table class="grid"><tr><td>-</td><td><b>Manufacturer</b></td></tr><tr><td>*</td><td><a href="#Organization_85c5d81e-9d5a-4a15-8b9d-42bbbe0409c8">See above (Organization/85c5d81e-9d5a-4a15-8b9d-42bbbe0409c8)</a></td></tr></table><blockquote><p><b>substance</b></p></blockquote></div>
        </text>
        <identifier>
          <use value="official"/>
          <system value="https://gsrs.ncats.nih.gov/ginas/app/beta/"/>
          <value value="15FIX9V2JP"/>
        </identifier>
        <status value="active"/>
        <for>
          <reference value="ManufacturedItemDefinition/23fed712-2d60-461d-83a6-5fb939b2a939"/>
        </for>
        <role>
          <coding>
            <system value="https://spor.ema.europa.eu/rmswi/"/>
            <code value="100000072082"/>
          </coding>
          <text value="Excipient"/>
        </role>
        <manufacturer>
          <manufacturer>
            <reference value="Organization/85c5d81e-9d5a-4a15-8b9d-42bbbe0409c8"/>
          </manufacturer>
        </manufacturer>
        <substance>
          <code>
            <concept>
              <coding>
                <system value="https://gsrs.ncats.nih.gov/ginas/app/beta/"/>
                <code value="15FIX9V2JP"/>
                <display value="TITANIUM DIOXIDE "/>
              </coding>
            </concept>
          </code>
        </substance>
      </Ingredient>
    </resource>
  </entry>
  <entry>
    <resource>
      <SubstanceDefinition>
        <id value="17c536c9-efd1-4427-a7b0-1bcdc266798f"/>
        <meta>
          <profile value="http://hl7.eu/fhir/ig/gravitate-health/StructureDefinition/SubstanceDefinition-uv-epi"/>
        </meta>
        <text>
          <status value="generated"/><div xmlns="http://www.w3.org/1999/xhtml"><p><b>Generated Narrative</b></p><div style="display: inline-block; background-color: #d9e0e7; padding: 6px; margin: 4px; border: 1px solid #8da1b4; border-radius: 5px; line-height: 60%"><p style="margin-bottom: 0px">Resource "17c536c9-efd1-4427-a7b0-1bcdc266798f" </p><p style="margin-bottom: 0px">Profile: <a href="StructureDefinition-SubstanceDefinition-uv-epi.html">SubstanceDefinition (ePI)</a></p></div><p><b>identifier</b>: id: NY22HMQ4BX (OFFICIAL)</p><p><b>version</b>: 39</p><p><b>status</b>: Validated (UNII) <span style="background: LightGoldenRodYellow; margin: 4px; border: 1px solid khaki"> (#1)</span></p><p><b>description</b>: White to yellowish white It is a powder of. N ,N -Slightly soluble in dimethylformamide and tetrahydroflan, slightly soluble in methanol and ethanol (95), sparingly soluble in acetonitrile, and practically insoluble in water.</p><p><b>manufacturer</b>: <a href="#Organization_85c5d81e-9d5a-4a15-8b9d-42bbbe0409c8">See above (Organization/85c5d81e-9d5a-4a15-8b9d-42bbbe0409c8)</a></p><h3>MolecularWeights</h3><table class="grid"><tr><td>-</td><td><b>Type</b></td><td><b>Amount</b></td></tr><tr><td>*</td><td>exact <span style="background: LightGoldenRodYellow; margin: 4px; border: 1px solid khaki"> ()</span></td><td>296.4</td></tr></table><h3>Structures</h3><table class="grid"><tr><td>-</td><td><b>MolecularFormula</b></td></tr><tr><td>*</td><td>C20H24O2</td></tr></table><h3>Names</h3><table class="grid"><tr><td>-</td><td><b>Name</b></td><td><b>Type</b></td></tr><tr><td>*</td><td>(+)-6-methyleneandrosta-1,4-diene-3,17-dione</td><td>Chemical Name <span style="background: LightGoldenRodYellow; margin: 4px; border: 1px solid khaki"> (#1)</span></td></tr></table></div>
        </text>
        <identifier>
          <use value="official"/>
          <system value="https://gsrs.ncats.nih.gov/ginas/app/beta/"/>
          <value value="NY22HMQ4BX"/>
        </identifier>
        <version value="39"/>
        <status>
          <coding>
            <system value="https://gsrs.ncats.nih.gov/ginas/app/beta/"/>
            <code value="1"/>
          </coding>
          <text value="Validated (UNII)"/>
        </status>
        <description value="White to yellowish white It is a powder of. N ,N -Slightly soluble in dimethylformamide and tetrahydroflan, slightly soluble in methanol and ethanol (95), sparingly soluble in acetonitrile, and practically insoluble in water."/>
        <manufacturer>
          <reference value="Organization/85c5d81e-9d5a-4a15-8b9d-42bbbe0409c8"/>
        </manufacturer>
        <molecularWeight>
          <type>
            <text value="exact"/>
          </type>
          <amount>
            <value value="296.4"/>
          </amount>
        </molecularWeight>
        <structure>
          <molecularFormula value="C20H24O2"/>
        </structure>
        <name>
          <name value="(+)-6-methyleneandrosta-1,4-diene-3,17-dione"/>
          <type>
            <coding>
              <system value="https://gsrs.ncats.nih.gov/ginas/app/beta/"/>
              <code value="1"/>
            </coding>
            <text value="Chemical Name"/>
          </type>
        </name>
      </SubstanceDefinition>
    </resource>
  </entry>
</Bundle>