<?xml version="1.0" encoding="UTF-8"?>

<Bundle xmlns="http://hl7.org/fhir">
  <id value="5526bcb3-9b7f-4bc1-a9e7-65302382e7a5"/>
  <identifier>
    <system value="https://www.gravitatehealth.eu/sid/doc"/>
    <value value="PL 31654/0006"/>
  </identifier>
  <type value="document"/>
  <timestamp value="2017-06-23T08:38:00+02:00"/>
  <entry>
    <resource>
      <Composition>
        <id value="cfsb1639991356428"/>
        <language value="en"/>
        <text>
          <status value="generated"/><div xmlns="http://www.w3.org/1999/xhtml" xml:lang="en" lang="en"><p><b>Generated Narrative</b></p><div style="display: inline-block; background-color: #d9e0e7; padding: 6px; margin: 4px; border: 1px solid #8da1b4; border-radius: 5px; line-height: 60%"><p style="margin-bottom: 0px">Resource "cfsb1639991356428"  (Language "en") </p></div><p><b>status</b>: final</p><p><b>type</b>: Package Leaflet <span style="background: LightGoldenRodYellow; margin: 4px; border: 1px solid khaki"> (#100000155538)</span></p><p><b>date</b>: 2015-02-07T13:28:17Z</p><p><b>author</b>: <a href="#Organization_cfsb1639754108144">See above (Organization/cfsb1639754108144)</a></p><p><b>title</b>: TEST PURPOSES ONLY - Monuril Vulcan ePI</p><p><b>confidentiality</b>: unrestricted</p></div>
        </text>
        <status value="final"/>
        <type>
          <coding>
            <system value="https://spor.ema.europa.eu/"/>
            <code value="100000155538"/>
          </coding>
          <text value="Package Leaflet"/>
        </type>
        <date value="2015-02-07T13:28:17Z"/>
        <author>
          <reference value="Organization/cfsb1639754108144"/>
        </author>
        <title value="TEST PURPOSES ONLY - Monuril Vulcan ePI"/>
        <confidentiality value="unrestricted"/>
        <section>
          <title value="B. Package Leaflet"/>
          <code>
            <coding>
              <system value="https://spor.ema.europa.eu/"/>
              <code value="100000155538"/>
            </coding>
            <text value="B. PACKAGE LEAFLET"/>
          </code>
          <text>
            <status value="additional"/><div xmlns="http://www.w3.org/1999/xhtml">PACKAGE LEAFLET: INFORMATION FOR THE USER MONURIL 3 g granules for oral solution Fosfomycin Read all of this leaflet carefully before you start taking this medicine because it contains important information for you.<ul><li>Keep this leaflet. You may need to read it again.</li><li>If you have any further questions, ask your doctor or pharmacist.</li><li>This medicine has been prescribed for you only. Do not pass it on to others. It may harm them, even if their signs of illness are the same as yours.</li><li>If you get any side effects talk to your doctor or pharmacist. This includes any possible side effects not listed in this leaflet. See section 4.</li></ul></div>
          </text>
        </section>
        <section>
          <title value="What is in this leaflet"/>
          <code>
            <coding>
              <system value="https://spor.ema.europa.eu/"/>
              <code value="100000155538-0"/>
            </coding>
            <text value="B. PACKAGE LEAFLET"/>
          </code>
          <text>
            <status value="additional"/><div xmlns="http://www.w3.org/1999/xhtml">What in this leaflet<ol><li>What Monuril is and what it is used for</li><li>What you need to know before you take Monuril</li><li>How to take Monuril</li><li>Possible side effects</li><li>How to store Monuril</li><li>Contents of the pack and other information</li></ol></div>
          </text>
        </section>
        <section>
          <title value="1. What Monuril is and what it is used for"/>
          <code>
            <coding>
              <system value="https://spor.ema.europa.eu/"/>
              <code value="100000155538-1"/>
            </coding>
            <text value="B. PACKAGE LEAFLET"/>
          </code>
          <text>
            <status value="additional"/><div xmlns="http://www.w3.org/1999/xhtml"><b>1. What Monuril is and what it is used for</b> Monuril contains the active substance fosfomycin (as fosfomycin trometamol). It is an antibiotic that works by killing bacteria which can cause infections. Monuril is used to treat uncomplicated infection of the bladder in women and female adolescents. Monuril is used as antibiotic prophylaxis for transrectal prostate biopsy in adult man.</div>
          </text>
        </section>
        <section>
          <title value="2. What you need to know before you take Monuril"/>
          <code>
            <coding>
              <system value="https://spor.ema.europa.eu/"/>
              <code value="100000155538-2"/>
            </coding>
            <text value="B. PACKAGE LEAFLET"/>
          </code>
          <text>
            <status value="additional"/><div xmlns="http://www.w3.org/1999/xhtml"><b>2. What you need to know before you take Monuril</b><p><b>Do not take Monuril if you:</b></p><ul><li>are allergic to fosfomycin or any of the other ingredients of this medicine (listed in section 6).</li></ul><b>Warnings and precautions</b> Talk to your doctor, pharmacist or nurse before using Monuril if you suffer from one of the following disorders:<ul><li>persistent infections of the bladder,</li><li>previously had diarrhea after taking any other antibiotics.</li></ul><p><u>Conditions you need to look out for</u></p>Monuril can cause serious side effects. These include allergic reactions and an inflammation of the large intestine. You must look out for certain symptoms while you are taking this medicine, to reduce the risk of any problems. See “Serious side effects” in Section 4.<p><b>Children and adolescents</b></p>Do not give this medicine to children less than 12 years of age, as its safety and efficacy have not been established in this age group.<p><b>Other medicines and Monuril</b></p>Tell your doctor or pharmacist if you are taking, have recently taken or might take any other medicines, including medicines obtained without a prescription. This is especially important if you are taking:<ul><li><b>metoclopramide</b> or other medicinal products that increase the movement of food through the stomach and intestines, because they may reduce the uptake of fosfomycin by your body,</li><li><b>anticoagulants</b>, as their ability to prevent your blood from clotting might be altered by fosfomycin and other antibiotics.</li></ul><p><b>Monuril with food</b></p>Food may delay the absorption of fosfomycin. Therefore, this medicinal product should be taken on an empty stomach (2-3 hours before or 2-3 hours after a meal).<p><b>Pregnancy, breast-feeding and fertility</b></p>If you are pregnant or breast-feeding, think you may be pregnant or are planning to have a baby, ask your doctor or pharmacist for advice before taking this medicine.<p>If you are pregnant your doctor will only give you this medicine when it is clearly needed.</p><p>Breast-feeding mothers can take a single oral dose of this medicine.</p><p><b>Driving and using machines</b></p>You may experience side effects, such as dizziness, which may affect your ability to drive or use machines.<p><b>Monuril contains</b></p><u>Sodium</u> This medicine contains less than 1 mmol sodium (23 mg) per sachet that is to say essentially 'sodium-free'. <u>Sucrose</u> If you have been told by your doctor that you have an intolerance to some sugars, contact your doctor before taking this medicinal product. <u>Sulphites</u> May rarely cause severe hypersensitivity reactions and bronchospasm.</div>
          </text>
        </section>
        <section>
          <title value="3. How to take Monuril"/>
          <code>
            <coding>
              <system value="https://spor.ema.europa.eu/"/>
              <code value="100000155538-3"/>
            </coding>
            <text value="B. PACKAGE LEAFLET"/>
          </code>
          <text>
            <status value="additional"/><div xmlns="http://www.w3.org/1999/xhtml"><p><b>3. How to take Monuril</b></p>Always take this medicine exactly as your doctor or pharmacist has told you. Check with your doctor or pharmacist if you are not sure.<p>In case of treatment of uncomplicated infection of the bladder, in women and female adolescents the recommended dose is 1 sachet of Monuril (3 g Fosfomycin).</p><p>When used as antibiotic prophylaxis for transrectal prostate biopsy the recommended dose is 1 sachet of Monuril (3 g fosfomycin) 3 hours prior to the procedure and 1 sachet of Monuril (3 g fosfomycin) 24 hours after the procedure.</p><p><b>Use in patients with renal impairment</b></p>This medicine should not be used in patients with severe renal impairment (creatinin clearance &lt; 10 ml/min).<p><b>Use in children and adolescents</b></p>This medicine should not be used in children less than 12 years of age.<p><b>Method of administration</b></p>For oral use.<p>Take this medicine by mouth, on an empty stomach (2-3 hours before or 2-3 hours after a meal), preferably before going to bed after emptying the bladder.</p><p>Dissolve the content of one sachet in a glass of water and drink immediately.</p><p><b>If you take more Monuril than you should</b></p>If you accidentally take more than your prescribed dose, contact your doctor or pharmacist.<p>If you have any further questions on the use of this medicine, ask your doctor or pharmacist.</p></div>
          </text>
        </section>
        <section>
          <title value="4. Possible side effects"/>
          <code>
            <coding>
              <system value="https://spor.ema.europa.eu/"/>
              <code value="100000155538-4"/>
            </coding>
            <text value="B. PACKAGE LEAFLET"/>
          </code>
          <text>
            <status value="additional"/><div xmlns="http://www.w3.org/1999/xhtml"><p><b>4. Possible side effects</b></p>Like all medicines, this medicine can cause side effects, although not everybody gets them.<p><b>Serious side effects</b></p><p><b>While taking Monuril, if you develop any of the following symptoms you should stop taking the medicine and contact your doctor immediately:</b></p><ul><li>anaphylactic shock, a life threatening type of allergic reaction (<em>the frequency is unknown</em>). Symptoms include a sudden onset of rash, itching or hives on the skin and or shortness of breath, wheezing or difficulty in breathing,</li><li>swelling of the face, lips, tongue or throat with breathing difficulties (angioedema) (<em>the frequency is unknown</em>),</li><li>moderate to severe diarrhea, abdominal cramps, bloody stools and/or fever may mean that you have an infection of the large intestine (antibiotic-associated colitis) (<em>the frequency is unknown</em>). Do not take medicines against diarrhea that inhibit the bowel movements (antiperistaltics).</li></ul><p><b>Other side effects</b></p><u>Common (may affect up to 1 in 10 people):</u><ul><li>headache</li><li>dizziness</li><li>diarrhea</li><li>nausea</li><li>indigestion</li><li>abdominal pain</li><li>infection of the female genital organs with symptoms like inflammation, irritation, itching (vulvovaginitis).</li></ul><u>Uncommon (may affect up to 1 in 100 people):</u><ul><li>vomiting</li><li>rash</li><li>urticaria</li><li>itching</li></ul><u>Not known (frequency cannot be estimated from the available data):</u><ul><li>allergic reactions.</li></ul><p><b>Reporting of side effects</b></p>If you get any side effects, talk to your doctor or pharmacist. This includes any possible side effects not listed in this leaflet. You can also report side effects directly via the national reporting system website: <a href="www.mhra.gov.uk/yellowcard">www.mhra.gov.uk/yellowcard</a>. By reporting side effects you can help provide more information on the safety of this medicine.</div>
          </text>
        </section>
        <section>
          <title value="5. How to store Monuril"/>
          <code>
            <coding>
              <system value="https://spor.ema.europa.eu/"/>
              <code value="100000155538-5"/>
            </coding>
            <text value="B. PACKAGE LEAFLET"/>
          </code>
          <text>
            <status value="additional"/><div xmlns="http://www.w3.org/1999/xhtml"><p>Keep this medicine out of the sight and reach of children.</p><p>Do not use this medicine after the expiry date which is stated on the carton and the blister after “EXP”. The expiry date refers to the last day of that month.</p><p>This medicine does not require any special storage conditions.</p><p>Do not throw away any medicines via wastewater or household waste. Ask your pharmacist how to throw away medicines you no longer use. These measures will help protect the environment.</p></div>
          </text>
        </section>
        <section>
          <title value="6. Contents of the pack and other information"/>
          <code>
            <coding>
              <system value="https://spor.ema.europa.eu/"/>
              <code value="100000155538-6"/>
            </coding>
            <text value="B. PACKAGE LEAFLET"/>
          </code>
          <text>
            <status value="additional"/><div xmlns="http://www.w3.org/1999/xhtml"><p><b>6. Contents of the pack and other information</b></p><p><b>What Monuril contains</b></p><ul><li>The active substance is fosfomycin. Each sachet contains 5.631 g of fosfomycin trometamol, equivalent to 3 g of fosfomycin</li><li>the other ingredients are mandarin flavour, orange flavour, saccharin, sucrose (see section 2 for information on sucrose).</li></ul><p><b>What Monuril looks like and contents of the pack</b></p>White granules for oral solution in a single dose sachet.<p>Sachets are four layers laminate of: paper/polyethylene/aluminium/polyethylene.</p><p>Monuril is available in packs containing:</p>1 sachet of 8 g of granules (3 g fosfomycin) 2 sachets of 8 g of granules (3 g fosfomycin) 5 sachets of 8 g of granules (3 g fosfomycin). Not all pack sizes may be marketed.<p><b>Marketing Authorisation Holder and Manufacturer</b></p>Marketing Authorisation Holder: Zambon S.p.A. Via Lillo del Duca, 10 20091 Bresso (Milan) - Italy Tel: +39 02 665 241 Fax: +39 02 665 01 492<p>Manufacturer:</p>Zambon S.p.A. Via della Chimica, 9 36100 Vicenza - Italy<p><b>Distributor</b></p>Profile Pharma Limited Bicentennial Building Southern Gate West Sussex PO19 8EZ UK Tel: +44 (0) 800 0288 942 Email: <a href="mailto:info.profilepharma@zambongroup.com">info.profilepharma@zambongroup.com</a><p><b>This leaflet was last revised in November 2020.</b></p></div>
          </text>
        </section>
      </Composition>
    </resource>
  </entry>
  <entry>
    <resource>
      <Organization>
        <id value="cfsb1639753766266"/>
        <text>
          <status value="generated"/><div xmlns="http://www.w3.org/1999/xhtml"><p><b>Generated Narrative</b></p><div style="display: inline-block; background-color: #d9e0e7; padding: 6px; margin: 4px; border: 1px solid #8da1b4; border-radius: 5px; line-height: 60%"><p style="margin-bottom: 0px">Resource "cfsb1639753766266" </p></div><p><b>identifier</b>: id: ORG-100000380 (OFFICIAL)</p><p><b>active</b>: true</p><p><b>type</b>: Manufacturer <span style="background: LightGoldenRodYellow; margin: 4px; border: 1px solid khaki"> (#220000000033)</span></p><p><b>name</b>: Zambon S.p.A.</p><p><b>address</b>: Via della Chimica, 9 36100 Vicenza – Italy(WORK)</p></div>
        </text>
        <identifier>
          <use value="official"/>
          <system value="https://spor.ema.europa.eu/omswi/"/>
          <value value="ORG-100000380"/>
        </identifier>
        <active value="true"/>
        <type>
          <coding>
            <system value="https://spor.ema.europa.eu/rmswi/"/>
            <code value="220000000033"/>
            <display value="Manufacturer"/>
          </coding>
          <text value="Manufacturer"/>
        </type>
        <name value="Zambon S.p.A."/>
        <address>
          <use value="work"/>
          <type value="physical"/>
          <text value="Via della Chimica, 9 36100 Vicenza – Italy"/>
          <line value="Via della Chimica, 9 36100"/>
          <city value="Vicenza"/>
          <country value="it"/>
        </address>
      </Organization>
    </resource>
  </entry>
  <entry>
    <resource>
      <Organization>
        <id value="cfsb1639754108144"/>
        <text>
          <status value="generated"/><div xmlns="http://www.w3.org/1999/xhtml"><p><b>Generated Narrative</b></p><div style="display: inline-block; background-color: #d9e0e7; padding: 6px; margin: 4px; border: 1px solid #8da1b4; border-radius: 5px; line-height: 60%"><p style="margin-bottom: 0px">Resource "cfsb1639754108144" </p></div><p><b>identifier</b>: id: ORG-100000380 (OFFICIAL)</p><p><b>active</b>: true</p><p><b>type</b>: Marketing authorisation holder <span style="background: LightGoldenRodYellow; margin: 4px; border: 1px solid khaki"> (#220000000034)</span></p><p><b>name</b>: Zambon S.p.A.</p><p><b>telecom</b>: <a href="tel:+3902665241">+39 02 665 241</a></p><p><b>address</b>: Via Lillo del Duca, 10 20091 Bresso (Milan) – Italy(WORK)</p></div>
        </text>
        <identifier>
          <use value="official"/>
          <system value="https://spor.ema.europa.eu/omswi/"/>
          <value value="ORG-100000380"/>
        </identifier>
        <active value="true"/>
        <type>
          <coding>
            <system value="https://spor.ema.europa.eu/rmswi/"/>
            <code value="220000000034"/>
            <display value="Marketing authorisation holder"/>
          </coding>
          <text value="Marketing authorisation holder"/>
        </type>
        <name value="Zambon S.p.A."/>
        <telecom>
          <system value="phone"/>
          <value value="+39 02 665 241"/>
          <use value="work"/>
        </telecom>
        <address>
          <use value="work"/>
          <type value="physical"/>
          <text value="Via Lillo del Duca, 10 20091 Bresso (Milan) – Italy"/>
          <line value="Via Lillo del Duca, 10 20091"/>
          <city value="Bresso (Milan)"/>
          <country value="it"/>
        </address>
      </Organization>
    </resource>
  </entry>
  <entry>
    <resource>
      <Organization>
        <id value="cfsb1639015880655"/>
        <text>
          <status value="generated"/><div xmlns="http://www.w3.org/1999/xhtml"><p><b>Generated Narrative</b></p><div style="display: inline-block; background-color: #d9e0e7; padding: 6px; margin: 4px; border: 1px solid #8da1b4; border-radius: 5px; line-height: 60%"><p style="margin-bottom: 0px">Resource "cfsb1639015880655" </p></div><p><b>identifier</b>: id: ORG-100013412 (OFFICIAL)</p><p><b>active</b>: true</p><p><b>type</b>: Medicines Regulatory Authority <span style="background: LightGoldenRodYellow; margin: 4px; border: 1px solid khaki"> (#/#220000000033)</span></p><p><b>name</b>: European Medicines Agency</p><p><b>address</b>: Domenico Scarlattilaan 6 1083 HS Amsterdam The Netherlands(WORK)</p></div>
        </text>
        <identifier>
          <use value="official"/>
          <system value="https://spor.ema.europa.eu/omswi/#/"/>
          <value value="ORG-100013412"/>
        </identifier>
        <active value="true"/>
        <type>
          <coding>
            <system value="https://spor.ema.europa.eu/rmswi/"/>
            <code value="/#220000000033"/>
          </coding>
          <text value="Medicines Regulatory Authority"/>
        </type>
        <name value="European Medicines Agency"/>
        <address>
          <use value="work"/>
          <type value="physical"/>
          <text value="Domenico Scarlattilaan 6 1083 HS Amsterdam The Netherlands"/>
          <line value="Carretera De Martorell 41 61, Poligono Industrial Nord-Est"/>
          <city value="Amsterdam"/>
          <postalCode value="1083 HS"/>
          <country value="nl"/>
        </address>
      </Organization>
    </resource>
  </entry>
  <entry>
    <resource>
      <RegulatedAuthorization>
        <id value="cfsb1639761980721"/>
        <text>
          <status value="generated"/><div xmlns="http://www.w3.org/1999/xhtml"><p><b>Generated Narrative</b></p><div style="display: inline-block; background-color: #d9e0e7; padding: 6px; margin: 4px; border: 1px solid #8da1b4; border-radius: 5px; line-height: 60%"><p style="margin-bottom: 0px">Resource "cfsb1639761980721" </p></div><p><b>identifier</b>: id: PL 31654/0006 (OFFICIAL)</p><p><b>subject</b>: <a href="#MedicinalProductDefinition_cfsb1639760186202">See above (MedicinalProductDefinition/cfsb1639760186202)</a></p><p><b>type</b>: Marketing Authorisation <span style="background: LightGoldenRodYellow; margin: 4px; border: 1px solid khaki"> (#/#100000072062)</span></p><p><b>region</b>: European Union <span style="background: LightGoldenRodYellow; margin: 4px; border: 1px solid khaki"> (unknown#eu)</span></p><p><b>status</b>: Active <span style="background: LightGoldenRodYellow; margin: 4px; border: 1px solid khaki"> (<a href="http://build.fhir.org/codesystem-publication-status.html">PublicationStatus</a>#active)</span></p><p><b>statusDate</b>: 2015-02-07T13:28:17Z</p><p><b>holder</b>: <a href="#Organization_cfsb1639754108144">See above (Organization/cfsb1639754108144)</a></p><p><b>regulator</b>: <a href="#Organization_cfsb1639015880655">See above (Organization/cfsb1639015880655)</a></p></div>
        </text>
        <identifier>
          <use value="official"/>
          <system value="https://spor.ema.europa.eu/rmswi/"/>
          <value value="PL 31654/0006"/>
        </identifier>
        <subject>
          <reference value="MedicinalProductDefinition/cfsb1639760186202"/>
        </subject>
        <type>
          <coding>
            <system value="https://spor.ema.europa.eu/rmswi/"/>
            <code value="/#100000072062"/>
          </coding>
          <text value="Marketing Authorisation"/>
        </type>
        <region>
          <coding>
            <system value="urn:iso:std:iso:3166"/>
            <code value="eu"/>
          </coding>
          <text value="European Union"/>
        </region>
        <status>
          <coding>
            <system value="http://hl7.org/fhir/publication-status"/>
            <code value="active"/>
          </coding>
          <text value="Active"/>
        </status>
        <statusDate value="2015-02-07T13:28:17Z"/>
        <holder>
          <reference value="Organization/cfsb1639754108144"/>
        </holder>
        <regulator>
          <reference value="Organization/cfsb1639015880655"/>
        </regulator>
      </RegulatedAuthorization>
    </resource>
  </entry>
  <entry>
    <resource>
      <MedicinalProductDefinition>
        <id value="cfsb1639760186202"/>
        <text>
          <status value="generated"/><div xmlns="http://www.w3.org/1999/xhtml"><p><b>Generated Narrative</b></p><div style="display: inline-block; background-color: #d9e0e7; padding: 6px; margin: 4px; border: 1px solid #8da1b4; border-radius: 5px; line-height: 60%"><p style="margin-bottom: 0px">Resource "cfsb1639760186202" </p></div><p><b>identifier</b>: id: PL 31654/0006 (OFFICIAL)</p><p><b>type</b>: Marketing Authorisation <span style="background: LightGoldenRodYellow; margin: 4px; border: 1px solid khaki"> (#/#100000072062)</span></p><p><b>domain</b>: Human use <span style="background: LightGoldenRodYellow; margin: 4px; border: 1px solid khaki"> (#/#100000000012)</span></p><p><b>status</b>: Active <span style="background: LightGoldenRodYellow; margin: 4px; border: 1px solid khaki"> (<a href="http://build.fhir.org/codesystem-publication-status.html">PublicationStatus</a>#active)</span></p><p><b>legalStatusOfSupply</b>: Medicinal product subject to medical prescription <span style="background: LightGoldenRodYellow; margin: 4px; border: 1px solid khaki"> (#/#100000072084)</span></p><blockquote><p><b>name</b></p><p><b>productName</b>: MONURIL 3 g granules for oral solution</p><p><b>type</b>: Full name <span style="background: LightGoldenRodYellow; margin: 4px; border: 1px solid khaki"> (#/#220000000001)</span></p><h3>NameParts</h3><table class="grid"><tr><td>-</td><td><b>Part</b></td><td><b>Type</b></td></tr><tr><td>*</td><td>granules for oral solution</td><td>Pharmaceutical dose form part <span style="background: LightGoldenRodYellow; margin: 4px; border: 1px solid khaki"> (#/#220000000005)</span></td></tr></table><h3>CountryLanguages</h3><table class="grid"><tr><td>-</td><td><b>Country</b></td><td><b>Jurisdiction</b></td><td><b>Language</b></td></tr><tr><td>*</td><td>gb <span style="background: LightGoldenRodYellow; margin: 4px; border: 1px solid khaki"> (unknown#gb)</span></td><td>European Union <span style="background: LightGoldenRodYellow; margin: 4px; border: 1px solid khaki"> (unknown#eu)</span></td><td>English <span style="background: LightGoldenRodYellow; margin: 4px; border: 1px solid khaki"> (<a href="http://terminology.hl7.org/3.0.0/CodeSystem-v3-ietf3066.html">Tags for the Identification of Languages</a>#en)</span></td></tr></table></blockquote></div>
        </text>
        <identifier>
          <use value="official"/>
          <system value="https://spor.ema.europa.eu/pmswi/#/"/>
          <value value="PL 31654/0006"/>
        </identifier>
        <type>
          <coding>
            <system value="https://spor.ema.europa.eu/rmswi/"/>
            <code value="/#100000072062"/>
          </coding>
          <text value="Marketing Authorisation"/>
        </type>
        <domain>
          <coding>
            <system value="https://spor.ema.europa.eu/rmswi/"/>
            <code value="/#100000000012"/>
          </coding>
          <text value="Human use"/>
        </domain>
        <status>
          <coding>
            <system value="http://hl7.org/fhir/publication-status"/>
            <code value="active"/>
            <display value="Active"/>
          </coding>
        </status>
        <legalStatusOfSupply>
          <coding>
            <system value="https://spor.ema.europa.eu/rmswi/"/>
            <code value="/#100000072084"/>
          </coding>
          <text value="Medicinal product subject to medical prescription"/>
        </legalStatusOfSupply>
        <name>
          <productName value="MONURIL 3 g granules for oral solution"/>
          <type>
            <coding>
              <system value="https://spor.ema.europa.eu/rmswi/"/>
              <code value="/#220000000001"/>
            </coding>
            <text value="Full name"/>
          </type>
          <namePart>
            <part value="granules for oral solution"/>
            <type>
              <coding>
                <system value="https://spor.ema.europa.eu/rmswi/"/>
                <code value="/#220000000005"/>
              </coding>
              <text value="Pharmaceutical dose form part"/>
            </type>
          </namePart>
          <countryLanguage>
            <country>
              <coding>
                <system value="urn:iso:std:iso:3166"/>
                <code value="gb"/>
              </coding>
            </country>
            <jurisdiction>
              <coding>
                <system value="urn:iso:std:iso:3166"/>
                <code value="eu"/>
              </coding>
              <text value="European Union"/>
            </jurisdiction>
            <language>
              <coding>
                <system value="urn:ietf:bcp:47"/>
                <code value="en"/>
              </coding>
              <text value="English"/>
            </language>
          </countryLanguage>
        </name>
      </MedicinalProductDefinition>
    </resource>
  </entry>
  <entry>
    <resource>
      <PackagedProductDefinition>
        <id value="cfsb1639758328687"/>
        <text>
          <status value="generated"/><div xmlns="http://www.w3.org/1999/xhtml"><p><b>Generated Narrative</b></p><div style="display: inline-block; background-color: #d9e0e7; padding: 6px; margin: 4px; border: 1px solid #8da1b4; border-radius: 5px; line-height: 60%"><p style="margin-bottom: 0px">Resource "cfsb1639758328687" </p></div><p><b>identifier</b>: id: PL 31654/0006-5 (OFFICIAL)</p><p><b>name</b>: 5 sachets of 8 g of granules (3 g fosfomycin).</p><p><b>type</b>: Chemical Medicinal Product <span style="background: LightGoldenRodYellow; margin: 4px; border: 1px solid khaki"> (#100000155527)</span></p><p><b>packageFor</b>: <a href="#MedicinalProductDefinition_cfsb1639760186202">See above (MedicinalProductDefinition/cfsb1639760186202)</a></p><p><b>status</b>: Active <span style="background: LightGoldenRodYellow; margin: 4px; border: 1px solid khaki"> (<a href="http://build.fhir.org/codesystem-publication-status.html">PublicationStatus</a>#active)</span></p><p><b>statusDate</b>: 2008-09-19</p><p><b>containedItemQuantity</b>: 5 Sachet<span style="background: LightGoldenRodYellow"> (Details: [not stated] code 200000002143 = '200000002143')</span></p><p><b>manufacturer</b>: <a href="#Organization_cfsb1639753766266">See above (Organization/cfsb1639753766266)</a></p><blockquote><p><b>package</b></p><p><b>type</b>: Sachet <span style="background: LightGoldenRodYellow; margin: 4px; border: 1px solid khaki"> (#200000002143)</span></p><p><b>material</b>: Paper <span style="background: LightGoldenRodYellow; margin: 4px; border: 1px solid khaki"> (#200000003207)</span>, PolyEthylene <span style="background: LightGoldenRodYellow; margin: 4px; border: 1px solid khaki"> (#200000003214)</span>, Aluminium <span style="background: LightGoldenRodYellow; margin: 4px; border: 1px solid khaki"> (#200000003200)</span></p><p><b>manufacturer</b>: <a href="#Organization_cfsb1639753766266">See above (Organization/cfsb1639753766266)</a></p><blockquote><p><b>containedItem</b></p></blockquote></blockquote></div>
        </text>
        <identifier>
          <use value="official"/>
          <system value="https://spor.ema.europa.eu/pmswi/#/"/>
          <value value="PL 31654/0006-5"/>
        </identifier>
        <name value="5 sachets of 8 g of granules (3 g fosfomycin)."/>
        <type>
          <coding>
            <system value="https://spor.ema.europa.eu/rmswi/"/>
            <code value="100000155527"/>
            <display value="Chemical Medicinal Product"/>
          </coding>
          <text value="Chemical Medicinal Product"/>
        </type>
        <packageFor>
          <reference value="MedicinalProductDefinition/cfsb1639760186202"/>
        </packageFor>
        <status>
          <coding>
            <system value="http://hl7.org/fhir/publication-status"/>
            <code value="active"/>
            <display value="Active"/>
          </coding>
        </status>
        <statusDate value="2008-09-19"/>
        <containedItemQuantity>
          <value value="5"/>
          <unit value="Sachet"/>
          <code value="200000002143"/>
        </containedItemQuantity>
        <manufacturer>
          <reference value="Organization/cfsb1639753766266"/>
        </manufacturer>
        <package>
          <type>
            <coding>
              <system value="https://spor.ema.europa.eu/rmswi/"/>
              <code value="200000002143"/>
            </coding>
            <text value="Sachet"/>
          </type>
          <material>
            <coding>
              <system value="https://spor.ema.europa.eu/rmswi/"/>
              <code value="200000003207"/>
            </coding>
            <text value="Paper"/>
          </material>
          <material>
            <coding>
              <system value="https://spor.ema.europa.eu/rmswi/"/>
              <code value="200000003214"/>
            </coding>
            <text value="PolyEthylene"/>
          </material>
          <material>
            <coding>
              <system value="https://spor.ema.europa.eu/rmswi/"/>
              <code value="200000003200"/>
            </coding>
            <text value="Aluminium"/>
          </material>
          <manufacturer>
            <reference value="Organization/cfsb1639753766266"/>
          </manufacturer>
          <containedItem>
            <item>
              <reference>
                <reference value="ManufacturedItemDefinition/cfsb1639756818482"/>
              </reference>
            </item>
          </containedItem>
        </package>
      </PackagedProductDefinition>
    </resource>
  </entry>
  <entry>
    <resource>
      <PackagedProductDefinition>
        <id value="cfsb1639764389611"/>
        <text>
          <status value="generated"/><div xmlns="http://www.w3.org/1999/xhtml"><p><b>Generated Narrative</b></p><div style="display: inline-block; background-color: #d9e0e7; padding: 6px; margin: 4px; border: 1px solid #8da1b4; border-radius: 5px; line-height: 60%"><p style="margin-bottom: 0px">Resource "cfsb1639764389611" </p></div><p><b>identifier</b>: id: PL 31654/0006-2 (OFFICIAL)</p><p><b>name</b>: 2 sachets of 8 g of granules (3 g fosfomycin).</p><p><b>type</b>: Chemical Medicinal Product <span style="background: LightGoldenRodYellow; margin: 4px; border: 1px solid khaki"> (#100000155527)</span></p><p><b>packageFor</b>: <a href="#MedicinalProductDefinition_cfsb1639760186202">See above (MedicinalProductDefinition/cfsb1639760186202)</a></p><p><b>status</b>: Active <span style="background: LightGoldenRodYellow; margin: 4px; border: 1px solid khaki"> (<a href="http://build.fhir.org/codesystem-publication-status.html">PublicationStatus</a>#active)</span></p><p><b>containedItemQuantity</b>: 2 Sachet<span style="background: LightGoldenRodYellow"> (Details: [not stated] code 200000002143 = '200000002143')</span></p><p><b>manufacturer</b>: <a href="#Organization_cfsb1639753766266">See above (Organization/cfsb1639753766266)</a></p><blockquote><p><b>package</b></p><p><b>type</b>: Sachet <span style="background: LightGoldenRodYellow; margin: 4px; border: 1px solid khaki"> (#200000002143)</span></p><p><b>material</b>: Paper <span style="background: LightGoldenRodYellow; margin: 4px; border: 1px solid khaki"> (#200000003207)</span>, PolyEthylene <span style="background: LightGoldenRodYellow; margin: 4px; border: 1px solid khaki"> (#200000003214)</span>, Aluminium <span style="background: LightGoldenRodYellow; margin: 4px; border: 1px solid khaki"> (#200000003200)</span></p><p><b>manufacturer</b>: <a href="#Organization_cfsb1639753766266">See above (Organization/cfsb1639753766266)</a></p><blockquote><p><b>containedItem</b></p></blockquote></blockquote></div>
        </text>
        <identifier>
          <use value="official"/>
          <system value="https://spor.ema.europa.eu/pmswi/#/"/>
          <value value="PL 31654/0006-2"/>
        </identifier>
        <name value="2 sachets of 8 g of granules (3 g fosfomycin)."/>
        <type>
          <coding>
            <system value="https://spor.ema.europa.eu/rmswi/"/>
            <code value="100000155527"/>
            <display value="Chemical Medicinal Product"/>
          </coding>
          <text value="Chemical Medicinal Product"/>
        </type>
        <packageFor>
          <reference value="MedicinalProductDefinition/cfsb1639760186202"/>
        </packageFor>
        <status>
          <coding>
            <system value="http://hl7.org/fhir/publication-status"/>
            <code value="active"/>
            <display value="Active"/>
          </coding>
        </status>
        <containedItemQuantity>
          <value value="2"/>
          <unit value="Sachet"/>
          <code value="200000002143"/>
        </containedItemQuantity>
        <manufacturer>
          <reference value="Organization/cfsb1639753766266"/>
        </manufacturer>
        <package>
          <type>
            <coding>
              <system value="https://spor.ema.europa.eu/rmswi/"/>
              <code value="200000002143"/>
            </coding>
            <text value="Sachet"/>
          </type>
          <material>
            <coding>
              <system value="https://spor.ema.europa.eu/rmswi/"/>
              <code value="200000003207"/>
            </coding>
            <text value="Paper"/>
          </material>
          <material>
            <coding>
              <system value="https://spor.ema.europa.eu/rmswi/"/>
              <code value="200000003214"/>
            </coding>
            <text value="PolyEthylene"/>
          </material>
          <material>
            <coding>
              <system value="https://spor.ema.europa.eu/rmswi/"/>
              <code value="200000003200"/>
            </coding>
            <text value="Aluminium"/>
          </material>
          <manufacturer>
            <reference value="Organization/cfsb1639753766266"/>
          </manufacturer>
          <containedItem>
            <item>
              <reference>
                <reference value="ManufacturedItemDefinition/cfsb1639756818482"/>
              </reference>
            </item>
          </containedItem>
        </package>
      </PackagedProductDefinition>
    </resource>
  </entry>
  <entry>
    <resource>
      <PackagedProductDefinition>
        <id value="cfsb1639764389612"/>
        <text>
          <status value="generated"/><div xmlns="http://www.w3.org/1999/xhtml"><p><b>Generated Narrative</b></p><div style="display: inline-block; background-color: #d9e0e7; padding: 6px; margin: 4px; border: 1px solid #8da1b4; border-radius: 5px; line-height: 60%"><p style="margin-bottom: 0px">Resource "cfsb1639764389612" </p></div><p><b>identifier</b>: id: PL 31654/0006-1 (OFFICIAL)</p><p><b>name</b>: 1 sachet of 8 g of granules (3 g fosfomycin).</p><p><b>type</b>: Chemical Medicinal Product <span style="background: LightGoldenRodYellow; margin: 4px; border: 1px solid khaki"> (#100000155527)</span></p><p><b>packageFor</b>: <a href="#MedicinalProductDefinition_cfsb1639760186202">See above (MedicinalProductDefinition/cfsb1639760186202)</a></p><p><b>status</b>: Active <span style="background: LightGoldenRodYellow; margin: 4px; border: 1px solid khaki"> (<a href="http://build.fhir.org/codesystem-publication-status.html">PublicationStatus</a>#active)</span></p><p><b>containedItemQuantity</b>: 1 Sachet<span style="background: LightGoldenRodYellow"> (Details: [not stated] code 200000002143 = '200000002143')</span></p><p><b>manufacturer</b>: <a href="#Organization_cfsb1639753766266">See above (Organization/cfsb1639753766266)</a></p><blockquote><p><b>package</b></p><p><b>type</b>: Sachet <span style="background: LightGoldenRodYellow; margin: 4px; border: 1px solid khaki"> (#200000002143)</span></p><p><b>material</b>: Paper <span style="background: LightGoldenRodYellow; margin: 4px; border: 1px solid khaki"> (#200000003207)</span>, PolyEthylene <span style="background: LightGoldenRodYellow; margin: 4px; border: 1px solid khaki"> (#200000003214)</span>, Aluminium <span style="background: LightGoldenRodYellow; margin: 4px; border: 1px solid khaki"> (#200000003200)</span></p><p><b>manufacturer</b>: <a href="#Organization_cfsb1639753766266">See above (Organization/cfsb1639753766266)</a></p><blockquote><p><b>containedItem</b></p></blockquote></blockquote></div>
        </text>
        <identifier>
          <use value="official"/>
          <system value="https://spor.ema.europa.eu/pmswi/#/"/>
          <value value="PL 31654/0006-1"/>
        </identifier>
        <name value="1 sachet of 8 g of granules (3 g fosfomycin)."/>
        <type>
          <coding>
            <system value="https://spor.ema.europa.eu/rmswi/"/>
            <code value="100000155527"/>
            <display value="Chemical Medicinal Product"/>
          </coding>
          <text value="Chemical Medicinal Product"/>
        </type>
        <packageFor>
          <reference value="MedicinalProductDefinition/cfsb1639760186202"/>
        </packageFor>
        <status>
          <coding>
            <system value="http://hl7.org/fhir/publication-status"/>
            <code value="active"/>
            <display value="Active"/>
          </coding>
        </status>
        <containedItemQuantity>
          <value value="1"/>
          <unit value="Sachet"/>
          <code value="200000002143"/>
        </containedItemQuantity>
        <manufacturer>
          <reference value="Organization/cfsb1639753766266"/>
        </manufacturer>
        <package>
          <type>
            <coding>
              <system value="https://spor.ema.europa.eu/rmswi/"/>
              <code value="200000002143"/>
            </coding>
            <text value="Sachet"/>
          </type>
          <material>
            <coding>
              <system value="https://spor.ema.europa.eu/rmswi/"/>
              <code value="200000003207"/>
            </coding>
            <text value="Paper"/>
          </material>
          <material>
            <coding>
              <system value="https://spor.ema.europa.eu/rmswi/"/>
              <code value="200000003214"/>
            </coding>
            <text value="PolyEthylene"/>
          </material>
          <material>
            <coding>
              <system value="https://spor.ema.europa.eu/rmswi/"/>
              <code value="200000003200"/>
            </coding>
            <text value="Aluminium"/>
          </material>
          <manufacturer>
            <reference value="Organization/cfsb1639753766266"/>
          </manufacturer>
          <containedItem>
            <item>
              <reference>
                <reference value="ManufacturedItemDefinition/cfsb1639756818482"/>
              </reference>
            </item>
          </containedItem>
        </package>
      </PackagedProductDefinition>
    </resource>
  </entry>
  <entry>
    <resource>
      <AdministrableProductDefinition>
        <id value="cfsb1639760977050"/>
        <text>
          <status value="generated"/><div xmlns="http://www.w3.org/1999/xhtml"><p><b>Generated Narrative</b></p><div style="display: inline-block; background-color: #d9e0e7; padding: 6px; margin: 4px; border: 1px solid #8da1b4; border-radius: 5px; line-height: 60%"><p style="margin-bottom: 0px">Resource "cfsb1639760977050" </p></div><p><b>identifier</b>: id: 0xE857DA811B4A6F3BD57810C45D2EA1ED (OFFICIAL)</p><p><b>status</b>: active</p><p><b>formOf</b>: <a href="#MedicinalProductDefinition_cfsb1639760186202">See above (MedicinalProductDefinition/cfsb1639760186202)</a></p><p><b>administrableDoseForm</b>: Granules and solvent for oral suspension <span style="background: LightGoldenRodYellow; margin: 4px; border: 1px solid khaki"> (#/#100000116155)</span></p><p><b>producedFrom</b>: <a href="#ManufacturedItemDefinition_cfsb1639756818482">See above (ManufacturedItemDefinition/cfsb1639756818482)</a></p><blockquote><p><b>routeOfAdministration</b></p><p><b>code</b>: oral use <span style="background: LightGoldenRodYellow; margin: 4px; border: 1px solid khaki"> (#100000073619)</span></p><h3>TargetSpecies</h3><table class="grid"><tr><td>-</td><td><b>Code</b></td></tr><tr><td>*</td><td>Human <span style="background: LightGoldenRodYellow; margin: 4px; border: 1px solid khaki"> (#/#100000109093)</span></td></tr></table></blockquote></div>
        </text>
        <identifier>
          <use value="official"/>
          <system value="https://spor.ema.europa.eu/pmswi/"/>
          <value value="0xE857DA811B4A6F3BD57810C45D2EA1ED"/>
        </identifier>
        <status value="active"/>
        <formOf>
          <reference value="MedicinalProductDefinition/cfsb1639760186202"/>
        </formOf>
        <administrableDoseForm>
          <coding>
            <system value="https://spor.ema.europa.eu/rmswi/"/>
            <code value="/#100000116155"/>
            <display value="Granules and solvent for oral suspension"/>
          </coding>
          <text value="Granules and solvent for oral suspension"/>
        </administrableDoseForm>
        <producedFrom>
          <reference value="ManufacturedItemDefinition/cfsb1639756818482"/>
        </producedFrom>
        <routeOfAdministration>
          <code>
            <coding>
              <system value="https://spor.ema.europa.eu/rmswi/"/>
              <code value="100000073619"/>
            </coding>
            <text value="oral use"/>
          </code>
          <targetSpecies>
            <code>
              <coding>
                <system value="https://spor.ema.europa.eu/rmswi/"/>
                <code value="/#100000109093"/>
              </coding>
              <text value="Human"/>
            </code>
          </targetSpecies>
        </routeOfAdministration>
      </AdministrableProductDefinition>
    </resource>
  </entry>
  <entry>
    <resource>
      <ManufacturedItemDefinition>
        <id value="cfsb1639756818482"/>
        <text>
          <status value="generated"/><div xmlns="http://www.w3.org/1999/xhtml"><p><b>Generated Narrative</b></p><div style="display: inline-block; background-color: #d9e0e7; padding: 6px; margin: 4px; border: 1px solid #8da1b4; border-radius: 5px; line-height: 60%"><p style="margin-bottom: 0px">Resource "cfsb1639756818482" </p></div><p><b>identifier</b>: id: PL 31654/0006 (OFFICIAL)</p><p><b>status</b>: active</p><p><b>manufacturedDoseForm</b>: Granules for oral solution <span style="background: LightGoldenRodYellow; margin: 4px; border: 1px solid khaki"> (#100000073365)</span></p><p><b>unitOfPresentation</b>: Sachet <span style="background: LightGoldenRodYellow; margin: 4px; border: 1px solid khaki"> (#200000002143)</span></p><p><b>manufacturer</b>: <a href="#Organization_cfsb1639753766266">See above (Organization/cfsb1639753766266)</a></p></div>
        </text>
        <identifier>
          <use value="official"/>
          <system value="https://spor.ema.europa.eu/pmswi/#/"/>
          <value value="PL 31654/0006"/>
        </identifier>
        <status value="active"/>
        <manufacturedDoseForm>
          <coding>
            <system value="https://spor.ema.europa.eu/rmswi/"/>
            <code value="100000073365"/>
            <display value="Granules for oral solution"/>
          </coding>
          <text value="Granules for oral solution"/>
        </manufacturedDoseForm>
        <unitOfPresentation>
          <coding>
            <system value="https://spor.ema.europa.eu/rmswi/"/>
            <code value="200000002143"/>
            <display value="Sachet"/>
          </coding>
          <text value="Sachet"/>
        </unitOfPresentation>
        <manufacturer>
          <reference value="Organization/cfsb1639753766266"/>
        </manufacturer>
      </ManufacturedItemDefinition>
    </resource>
  </entry>
  <entry>
    <resource>
      <Ingredient>
        <id value="cfsb1639762372322"/>
        <text>
          <status value="generated"/><div xmlns="http://www.w3.org/1999/xhtml"><p><b>Generated Narrative</b></p><div style="display: inline-block; background-color: #d9e0e7; padding: 6px; margin: 4px; border: 1px solid #8da1b4; border-radius: 5px; line-height: 60%"><p style="margin-bottom: 0px">Resource "cfsb1639762372322" </p></div><p><b>status</b>: active</p><p><b>role</b>: Excipient <span style="background: LightGoldenRodYellow; margin: 4px; border: 1px solid khaki"> (#100000072082)</span></p><h3>Manufacturers</h3><table class="grid"><tr><td>-</td><td><b>Manufacturer</b></td></tr><tr><td>*</td><td><a href="#Organization_cfsb1639753766266">See above (Organization/cfsb1639753766266)</a></td></tr></table><blockquote><p><b>substance</b></p></blockquote></div>
        </text>
        <status value="active"/>
        <role>
          <coding>
            <system value="https://spor.ema.europa.eu/rmswi/"/>
            <code value="100000072082"/>
          </coding>
          <text value="Excipient"/>
        </role>
        <manufacturer>
          <manufacturer>
            <reference value="Organization/cfsb1639753766266"/>
          </manufacturer>
        </manufacturer>
        <substance>
          <code>
            <concept>
              <coding>
                <system value="https://gsrs.ncats.nih.gov/ginas/app/beta/home"/>
                <code value="5EVU04N5QU"/>
                <display value="Orange"/>
              </coding>
            </concept>
          </code>
        </substance>
      </Ingredient>
    </resource>
  </entry>
  <entry>
    <resource>
      <Ingredient>
        <id value="cfsb1639754408039"/>
        <text>
          <status value="generated"/><div xmlns="http://www.w3.org/1999/xhtml"><p><b>Generated Narrative</b></p><div style="display: inline-block; background-color: #d9e0e7; padding: 6px; margin: 4px; border: 1px solid #8da1b4; border-radius: 5px; line-height: 60%"><p style="margin-bottom: 0px">Resource "cfsb1639754408039" </p></div><p><b>status</b>: active</p><p><b>role</b>: active <span style="background: LightGoldenRodYellow; margin: 4px; border: 1px solid khaki"> (#/#00000072072)</span></p><h3>Manufacturers</h3><table class="grid"><tr><td>-</td><td><b>Manufacturer</b></td></tr><tr><td>*</td><td><a href="#Organization_cfsb1639753766266">See above (Organization/cfsb1639753766266)</a></td></tr></table><blockquote><p><b>substance</b></p><blockquote><p><b>strength</b></p><p><b>presentation</b>: 5.631 g</p><p><b>basis</b>: active ingredient - moiety is basis of strength <span style="background: LightGoldenRodYellow; margin: 4px; border: 1px solid khaki"> (<a href="http://terminology.hl7.org/3.0.0/CodeSystem-v3-RoleClass.html">RoleClass</a>#ACTIM)</span></p><blockquote><p><b>referenceStrength</b></p><p><b>strength</b>: 3 g</p></blockquote></blockquote></blockquote></div>
        </text>
        <status value="active"/>
        <role>
          <coding>
            <system value="https://spor.ema.europa.eu/rmswi/"/>
            <code value="/#00000072072"/>
          </coding>
          <text value="active"/>
        </role>
        <manufacturer>
          <manufacturer>
            <reference value="Organization/cfsb1639753766266"/>
          </manufacturer>
        </manufacturer>
        <substance>
          <code>
            <concept>
              <coding>
                <system value="https://gsrs.ncats.nih.gov/ginas/app/beta/"/>
                <code value="7FXW6U30GY"/>
                <display value="Fosfomycin Tromethamine"/>
              </coding>
            </concept>
          </code>
          <strength>
            <presentationQuantity>
              <value value="5.631"/>
              <unit value="g"/>
            </presentationQuantity>
            <basis>
              <coding>
                <system value="http://terminology.hl7.org/CodeSystem/v3-RoleClass"/>
                <code value="ACTIM"/>
                <display value="active ingredient - moiety is basis of strength"/>
              </coding>
              <text value="active ingredient - moiety is basis of strength"/>
            </basis>
            <referenceStrength>
              <substance>
                <concept>
                  <coding>
                    <system value="https://gsrs.ncats.nih.gov/ginas/app/beta/"/>
                    <code value="2N81MY12TE"/>
                    <display value="Fosfomycin"/>
                  </coding>
                </concept>
              </substance>
              <strengthQuantity>
                <value value="3"/>
                <unit value="g"/>
              </strengthQuantity>
            </referenceStrength>
          </strength>
        </substance>
      </Ingredient>
    </resource>
  </entry>
  <entry>
    <resource>
      <Ingredient>
        <id value="cfsb1639762593730"/>
        <text>
          <status value="generated"/><div xmlns="http://www.w3.org/1999/xhtml"><p><b>Generated Narrative</b></p><div style="display: inline-block; background-color: #d9e0e7; padding: 6px; margin: 4px; border: 1px solid #8da1b4; border-radius: 5px; line-height: 60%"><p style="margin-bottom: 0px">Resource "cfsb1639762593730" </p></div><p><b>status</b>: active</p><p><b>role</b>: Excipient <span style="background: LightGoldenRodYellow; margin: 4px; border: 1px solid khaki"> (#100000072082)</span></p><h3>Manufacturers</h3><table class="grid"><tr><td>-</td><td><b>Manufacturer</b></td></tr><tr><td>*</td><td><a href="#Organization_cfsb1639753766266">See above (Organization/cfsb1639753766266)</a></td></tr></table><blockquote><p><b>substance</b></p></blockquote></div>
        </text>
        <status value="active"/>
        <role>
          <coding>
            <system value="https://spor.ema.europa.eu/rmswi/"/>
            <code value="100000072082"/>
          </coding>
          <text value="Excipient"/>
        </role>
        <manufacturer>
          <manufacturer>
            <reference value="Organization/cfsb1639753766266"/>
          </manufacturer>
        </manufacturer>
        <substance>
          <code>
            <concept>
              <coding>
                <system value="https://gsrs.ncats.nih.gov/ginas/app/beta/home"/>
                <code value="C151H8M554"/>
                <display value="Sucrose"/>
              </coding>
            </concept>
          </code>
        </substance>
      </Ingredient>
    </resource>
  </entry>
  <entry>
    <resource>
      <Ingredient>
        <id value="cfsb1639762372321"/>
        <text>
          <status value="generated"/><div xmlns="http://www.w3.org/1999/xhtml"><p><b>Generated Narrative</b></p><div style="display: inline-block; background-color: #d9e0e7; padding: 6px; margin: 4px; border: 1px solid #8da1b4; border-radius: 5px; line-height: 60%"><p style="margin-bottom: 0px">Resource "cfsb1639762372321" </p></div><p><b>status</b>: active</p><p><b>role</b>: Excipient <span style="background: LightGoldenRodYellow; margin: 4px; border: 1px solid khaki"> (#100000072082)</span></p><h3>Manufacturers</h3><table class="grid"><tr><td>-</td><td><b>Manufacturer</b></td></tr><tr><td>*</td><td><a href="#Organization_cfsb1639753766266">See above (Organization/cfsb1639753766266)</a></td></tr></table><blockquote><p><b>substance</b></p></blockquote></div>
        </text>
        <status value="active"/>
        <role>
          <coding>
            <system value="https://spor.ema.europa.eu/rmswi/"/>
            <code value="100000072082"/>
          </coding>
          <text value="Excipient"/>
        </role>
        <manufacturer>
          <manufacturer>
            <reference value="Organization/cfsb1639753766266"/>
          </manufacturer>
        </manufacturer>
        <substance>
          <code>
            <concept>
              <coding>
                <system value="https://gsrs.ncats.nih.gov/ginas/app/beta/home"/>
                <code value="FST467XS7D"/>
                <display value="Saccharin"/>
              </coding>
            </concept>
          </code>
        </substance>
      </Ingredient>
    </resource>
  </entry>
  <entry>
    <resource>
      <Ingredient>
        <id value="cfsb1639762372323"/>
        <text>
          <status value="generated"/><div xmlns="http://www.w3.org/1999/xhtml"><p><b>Generated Narrative</b></p><div style="display: inline-block; background-color: #d9e0e7; padding: 6px; margin: 4px; border: 1px solid #8da1b4; border-radius: 5px; line-height: 60%"><p style="margin-bottom: 0px">Resource "cfsb1639762372323" </p></div><p><b>status</b>: active</p><p><b>role</b>: Excipient <span style="background: LightGoldenRodYellow; margin: 4px; border: 1px solid khaki"> (#100000072082)</span></p><h3>Manufacturers</h3><table class="grid"><tr><td>-</td><td><b>Manufacturer</b></td></tr><tr><td>*</td><td><a href="#Organization_cfsb1639753766266">See above (Organization/cfsb1639753766266)</a></td></tr></table><blockquote><p><b>substance</b></p></blockquote></div>
        </text>
        <status value="active"/>
        <role>
          <coding>
            <system value="https://spor.ema.europa.eu/rmswi/"/>
            <code value="100000072082"/>
          </coding>
          <text value="Excipient"/>
        </role>
        <manufacturer>
          <manufacturer>
            <reference value="Organization/cfsb1639753766266"/>
          </manufacturer>
        </manufacturer>
        <substance>
          <code>
            <concept>
              <coding>
                <system value="https://gsrs.ncats.nih.gov/ginas/app/beta/home"/>
                <code value="KH3E3096OO"/>
                <display value="Tangerine"/>
              </coding>
            </concept>
          </code>
        </substance>
      </Ingredient>
    </resource>
  </entry>
</Bundle>