{
  "resourceType": "Bundle",
  "id": "33d34b6a-afaf-47d9-8848-366768bd429a",
  "identifier": {
    "system": "https://www.gravitatehealth.eu/sid/doc",
    "value": "4291012F1022_4_02"
  },
  "type": "document",
  "timestamp": "2002-08-01T13:28:17Z",
  "entry": [
    {
      "resource": {
        "resourceType": "Composition",
        "id": "d19473ec-d66c-443d-bd8f-31398daaffee",
        "meta": {
          "profile": [
            "http://hl7.eu/fhir/ig/gravitate-health/StructureDefinition/Composition-uv-epi"
          ]
        },
        "language": "ja",
        "text": {
          "status": "generated",
          "div": "<div xmlns=\"http://www.w3.org/1999/xhtml\" xml:lang=\"ja\" lang=\"ja\"><p><b>Generated Narrative</b></p><div style=\"display: inline-block; background-color: #d9e0e7; padding: 6px; margin: 4px; border: 1px solid #8da1b4; border-radius: 5px; line-height: 60%\"><p style=\"margin-bottom: 0px\">Resource \"d19473ec-d66c-443d-bd8f-31398daaffee\"  (Language \"ja\") </p><p style=\"margin-bottom: 0px\">Profile: <a href=\"StructureDefinition-Composition-uv-epi.html\">Composition (ePI)</a></p></div><p><b>status</b>: final</p><p><b>type</b>: Package Leaflet <span style=\"background: LightGoldenRodYellow; margin: 4px; border: 1px solid khaki\"> (#100000155538)</span></p><p><b>date</b>: 2002-08-01 01:28:17+0000</p><p><b>author</b>: <a href=\"#Organization_7f257409-3b65-401d-a246-7ae51e298fbb\">See above (Organization/7f257409-3b65-401d-a246-7ae51e298fbb)</a></p><p><b>title</b>: TEST PURPOSES ONLY - Aromasin (exemestane) Tablets 25 mg tablets</p><p><b>confidentiality</b>: U</p><h3>Attesters</h3><table class=\"grid\"><tr><td>-</td><td><b>Mode</b></td><td><b>Time</b></td></tr><tr><td>*</td><td>Official <span style=\"background: LightGoldenRodYellow; margin: 4px; border: 1px solid khaki\"> (<a href=\"http://build.fhir.org/codesystem-composition-attestation-mode.html\">CompositionAttestationMode</a>#official)</span></td><td>2002-08-01 01:28:17+0000</td></tr></table></div>"
        },
        "status": "final",
        "type": {
          "coding": [
            {
              "system": "https://spor.ema.europa.eu/",
              "code": "100000155538"
            }
          ],
          "text": "Package Leaflet"
        },
        "subject": {
          "reference": "RegulatedAuthorization/15c6f86f-8665-4bd6-86da-a3a61fe16084"
        },
        "date": "2002-08-01T13:28:17Z",
        "author": [
          {
            "reference": "Organization/7f257409-3b65-401d-a246-7ae51e298fbb"
          }
        ],
        "title": "TEST PURPOSES ONLY - Aromasin (exemestane) Tablets 25 mg tablets",
        "confidentiality": "U",
        "attester": [
          {
            "mode": {
              "coding": [
                {
                  "system": "http://hl7.org/fhir/composition-attestation-mode",
                  "code": "official"
                }
              ]
            },
            "time": "2002-08-01T13:28:17Z"
          }
        ],
        "section": [
          {
            "title": "2. 禁忌(次の患者には投与しないこと)",
            "code": {
              "coding": [
                {
                  "system": "https://pmda.jp/",
                  "code": "2"
                }
              ],
              "text": "禁忌(次の患者には投与しないこと)"
            },
            "text": {
              "status": "additional",
              "div": "<div xmlns=\"http://www.w3.org/1999/xhtml\">2.1 妊婦又は妊娠している可能性のある女性[9.5参照] 2.2 授乳婦[9.6参照] 2.3 本剤の成分に対し過敏症の既往歴のある患者</div>"
            }
          },
          {
            "title": "3. 組成・性状",
            "code": {
              "coding": [
                {
                  "system": "https://pmda.jp/",
                  "code": "3"
                }
              ],
              "text": "組成・性状"
            },
            "text": {
              "status": "additional",
              "div": "<div xmlns=\"http://www.w3.org/1999/xhtml\">3.1 組成 3.2 製剤の性状</div>"
            }
          },
          {
            "title": "4. 効能又は効果",
            "code": {
              "coding": [
                {
                  "system": "https://pmda.jp/",
                  "code": "4"
                }
              ],
              "text": "効能又は効果"
            },
            "text": {
              "status": "additional",
              "div": "<div xmlns=\"http://www.w3.org/1999/xhtml\">閉経後乳癌</div>"
            }
          },
          {
            "title": "6. 用法及び用量",
            "code": {
              "coding": [
                {
                  "system": "https://pmda.jp/",
                  "code": "6"
                }
              ],
              "text": "用法及び用量"
            },
            "text": {
              "status": "additional",
              "div": "<div xmlns=\"http://www.w3.org/1999/xhtml\">通常、成人にはエキセメスタンとして1日1回25mgを食後に経口投 与する。</div>"
            }
          },
          {
            "title": "8. 重要な基本的注意",
            "code": {
              "coding": [
                {
                  "system": "https://pmda.jp/",
                  "code": "8"
                }
              ],
              "text": "重要な基本的注意"
            },
            "text": {
              "status": "additional",
              "div": "<div xmlns=\"http://www.w3.org/1999/xhtml\">8.1 本剤はホルモン療法剤であり、がんに対する薬物療法について十 分な知識・経験を持つ医師のもとで、本剤による治療が適切と判断 される患者についてのみ使用すること。 8.2 本剤は末梢アロマターゼを阻害することにより治療効果を発揮す るものであり、活発な卵巣機能を有する閉経前の患者ではアロマ ターゼを阻害する効果は不十分であると予想されること、並びに閉 経前の患者では使用経験がないことを考慮して、閉経前患者に対し 使用しないこと。 8.3 本剤の投与によって、骨粗鬆症、骨折が起こりやすくなるので、 骨密度等の骨状態を定期的に観察することが望ましい。 8.4 本剤の使用による嗜眠、傾眠、無力(症)及びめまいが報告され ており、このような症状がある場合、機械操作や自動車の運転はさ せないよう十分注意すること。</div>"
            }
          },
          {
            "title": "9. 特定の背景を有する患者に関する注意",
            "code": {
              "coding": [
                {
                  "system": "https://pmda.jp/",
                  "code": "9"
                }
              ],
              "text": "特定の背景を有する患者に関する注意"
            },
            "text": {
              "status": "additional",
              "div": "<div xmlns=\"http://www.w3.org/1999/xhtml\">9.2 腎機能障害患者 9.2.1 重度の腎障害のある患者 本剤の重度の腎障害患者における長期安全性を指標とした臨床試験 は実施していない。 9.3 肝機能障害患者 9.3.1 重度の肝障害のある患者 本剤の重度の肝障害患者における長期安全性を指標とした臨床試験 は実施していない。 9.5 妊婦 妊婦又は妊娠している可能性のある女性には投与しないこと。本剤 は、閉経後の患者を対象とするため、妊婦に対する投与は想定され ていないが、妊婦への投与の安全性については次の知見がある。動 物実験(ラット)で、分娩障害、妊娠期間の延長、吸収胚数の増加 及び生存胎児数の減少が認められている。また動物実験(ウサギ)で、 流産、吸収胚数の増加及び胎児体重の低下が認められている。しか し両種による動物実験で、催奇形性は認められてはいない。本剤の 妊婦又は妊娠している可能性のある女性における臨床使用経験はな い。[2.1参照] 9.6 授乳婦 投与しないこと。本剤は、閉経後の患者を対象とするため、授乳婦に 対する投与は想定されていないが、授乳婦への投与の安全性について は次の知見がある。動物実験(ラット)で乳汁中への移行が認められ ている。本剤の授乳中の女性における臨床使用経験はない。[2.2参照]</div>"
            }
          },
          {
            "title": "10. 相互作用",
            "code": {
              "coding": [
                {
                  "system": "https://pmda.jp/",
                  "code": "10"
                }
              ],
              "text": "10. 相互作用"
            },
            "text": {
              "status": "additional",
              "div": "<div xmlns=\"http://www.w3.org/1999/xhtml\">10.2 併用注意(併用に注意すること)</div>"
            }
          },
          {
            "title": "11. 副作用",
            "code": {
              "coding": [
                {
                  "system": "https://pmda.jp/",
                  "code": "11"
                }
              ],
              "text": "11. 副作用"
            },
            "text": {
              "status": "additional",
              "div": "<div xmlns=\"http://www.w3.org/1999/xhtml\">次の副作用があらわれることがあるので、観察を十分に行い、異常 が認められた場合には投与を中止するなど適切な処置を行うこと。</div>"
            }
          },
          {
            "title": "14. 適用上の注意",
            "code": {
              "coding": [
                {
                  "system": "https://pmda.jp/",
                  "code": "14"
                }
              ],
              "text": "14. 適用上の注意"
            },
            "text": {
              "status": "additional",
              "div": "<div xmlns=\"http://www.w3.org/1999/xhtml\">14.1 薬剤交付時の注意 PTP包装の薬剤はPTPシートから取り出して服用するよう指導するこ と。PTPシートの誤飲により、硬い鋭角部が食道粘膜へ刺入し、更に は穿孔をおこして縦隔洞炎等の重篤な合併症を併発することがある。</div>"
            }
          },
          {
            "title": "15. その他の注意",
            "code": {
              "coding": [
                {
                  "system": "https://pmda.jp/",
                  "code": "15"
                }
              ],
              "text": "15. その他の注意"
            },
            "text": {
              "status": "additional",
              "div": "<div xmlns=\"http://www.w3.org/1999/xhtml\"></div>"
            }
          },
          {
            "title": "15.2 非臨床試験に基づく情報",
            "code": {
              "coding": [
                {
                  "system": "https://pmda.jp/",
                  "code": "15.2"
                }
              ],
              "text": "15.2 非臨床試験に基づく情報"
            },
            "text": {
              "status": "additional",
              "div": "<div xmlns=\"http://www.w3.org/1999/xhtml\">24ヵ月間のマウスがん原性試験において、中用量(150mg/kg/日)、 高用量(450mg/kg/日)で雌雄において肝細胞腺腫及び肝細胞癌の 発生率の上昇が認められた。また、雄の高用量群で腎腺腫の発生の 上昇がみられた。これらの腫瘍はマウス特有なものである可能性が 高くヒトにおける臨床的な安全性との関連は低いと考えられる1)。</div>"
            }
          },
          {
            "title": "16. 薬物動態",
            "code": {
              "coding": [
                {
                  "system": "https://pmda.jp/",
                  "code": "16"
                }
              ],
              "text": "16. 薬物動態"
            },
            "text": {
              "status": "additional",
              "div": "<div xmlns=\"http://www.w3.org/1999/xhtml\">16.1 血中濃度 日本人の閉経後進行乳癌患者にエキセメスタン25mgを1日1回反復投与したと き、tmaxは2.01±1.35時間、Cmaxは27.4±16.6ng/mL、AUCは115±76ng・h/mL、 終末相のt1/2は20.2±11.7時間であった。血漿中エキセメスタン濃度推移を下図 に示す。 図 日本人閉経後進行乳癌患者にエキセメスタン25mgを1日1回29日間反復投 与した後の血漿中エキセメスタン濃度推移(n=15~16、平均値±標準偏差) 日本人の閉経後健康成人女性に単回及び反復経口投与(0.5~50mg)後のエ キセメスタンのCmax及びAUCは用量比例的であった2~4)。</div>"
            }
          },
          {
            "title": "17. 臨床成績",
            "code": {
              "coding": [
                {
                  "system": "https://pmda.jp/",
                  "code": "17"
                }
              ],
              "text": "17. 臨床成績"
            },
            "text": {
              "status": "additional",
              "div": "<div xmlns=\"http://www.w3.org/1999/xhtml\"></div>"
            }
          },
          {
            "title": "17.1 有効性及び安全性に関する試験 ",
            "code": {
              "coding": [
                {
                  "system": "https://pmda.jp/",
                  "code": "17.1"
                }
              ],
              "text": "17.1 有効性及び安全性に関する試験 "
            },
            "text": {
              "status": "additional",
              "div": "<div xmlns=\"http://www.w3.org/1999/xhtml\">17.1.1 国内臨床試験 第I相試験において、閉経後健康女性(単回14例、反復25例)を対象として、 本剤の0.5~50mg/日までの用量における安全性及び薬力学的作用(血清中エ ストロゲン濃度抑制作用)を検討した結果、用量依存的な血清中エストロゲ ン濃度の低下が認められた。前期第II相試験において、閉経後乳癌患者(10mg、 25mg各36例)を対象として、本剤の有効性及び安全性を検討の上、臨床推奨 用量の設定を試みた。奏効率において有意差はないものの25mgの方が10mg より優っていたことなどから、本剤の臨床推奨用量として25mg/日を選択した。 ホルモン療法耐性例に対する25mg群の奏効率は26.1%(6/23)であった3,4,10)。 17.1.2 ブリッジング試験 後期第II相試験において、抗エストロゲン剤耐性の閉経後乳癌患者33例を対 象として本剤の有効性及び安全性が検討された。なお、本試験は海外にて実 施された同様の試験(No.120002及びNo.010)結果の再現性を確認すること を目的として実施された11~13)。</div>"
            }
          },
          {
            "title": "18. 薬効薬理",
            "code": {
              "coding": [
                {
                  "system": "https://pmda.jp/",
                  "code": "18"
                }
              ],
              "text": "18. 薬効薬理"
            },
            "text": {
              "status": "additional",
              "div": "<div xmlns=\"http://www.w3.org/1999/xhtml\">18.1 作用機序 18.1.1 アロマターゼ阻害作用 エキセメスタンはアンドロゲンをエストロゲンに変換する酵素であるアロマ ターゼを非可逆的に阻害することにより、血中エストロゲン濃度を抑制し、 エストロゲン依存性の乳癌の増殖を阻害する。 (1)in vivo試験 妊馬血清ゴナドトロピン刺激ラットにおいて、エキセメスタンの単回経口投与は卵 巣アロマターゼ活性を用量依存的に減少させ、そのED50値は3.7mg/kgであった。 (2)in vitro試験 エキセメスタンは、他のステロイド合成系酵素にはほとんど影響を与えるこ となく、アロマターゼを選択的に不活性化した。 18.2 抗腫瘍効果 DMBA誘発ラット乳癌(閉経後モデル)に対しエキセメスタンを週6日、4週 間経口投与した結果、1mg/kg/日以上の用量で腫瘍の増殖を有意に阻害した。 18.3 エストロゲン抑制作用 18.3.1 妊馬血清ゴナドトロピン刺激ラットにおいて、エキセメスタンの単回経 口投与により血漿中エストラジオール濃度は用量依存的に低下し、そのED50 値は3.8mg/kgであった。 18.3.2 閉経後乳癌患者にエキセメスタン25mgを連日経口投与することにより、 血漿又は血清中エストロゲン(エストラジオール、エストロン及びエストロ ンスルフェート)濃度は81~95%低下した。</div>"
            }
          },
          {
            "title": "19. 有効成分に関する理化学的知見",
            "code": {
              "coding": [
                {
                  "system": "https://pmda.jp/",
                  "code": "19"
                }
              ],
              "text": "19. 有効成分に関する理化学的知見"
            },
            "text": {
              "status": "additional",
              "div": "<div xmlns=\"http://www.w3.org/1999/xhtml\">一般的名称:エキセメスタン(Exemestane) 化学名:(+)-6-methyleneandrosta-1,4-diene-3,17-dione 分子式:C20H24O2 分子量:296.40 性状:白色~黄白色の粉末である。N ,N -ジメチルホルムアミド及びテトラヒ ドロフランに溶けやすく、メタノール及びエタノール(95)にやや溶けやすく、 アセトニトリルにやや溶けにくく、水にほとんど溶けない。 化学構造式:</div>"
            }
          },
          {
            "title": "22. 包装",
            "code": {
              "coding": [
                {
                  "system": "https://pmda.jp/",
                  "code": "22"
                }
              ],
              "text": "22. 包装"
            },
            "text": {
              "status": "additional",
              "div": "<div xmlns=\"http://www.w3.org/1999/xhtml\">28錠[14錠(PTP)×2] 140錠[14錠(PTP)×10]</div>"
            }
          },
          {
            "title": "23. 主要文献",
            "code": {
              "coding": [
                {
                  "system": "https://pmda.jp/",
                  "code": "23"
                }
              ],
              "text": "23. 主要文献"
            },
            "text": {
              "status": "additional",
              "div": "<div xmlns=\"http://www.w3.org/1999/xhtml\">1) 社内資料:マウスにおける発癌性試験 [L20050107111] 2) 社内資料:閉経後乳癌患者における薬物動態(2002年7月5日承認、申請資 料概要ヘ.3.1.2、ヘ.3.2.1.iv) [L20070831006] 3) 三浦 重人ほか:癌と化学療法.2002;29(7):1179-1187 4) 三浦 重人ほか:癌と化学療法.2002;29(7):1189-1197 5) 社内資料:臓器・組織内濃度(単回投与)(2002年7月5日承認、申請資料 概要ヘ.2.2.1.i、ヘ.2.2.3.i、ヘ.2.4.4) [L20070831010] 6) 社内資料:蛋白結合率(2002年7月5日承認、申請資料概要ヘ.2.2.4) [L20070831009] 7) 社内資料:代謝(2002年7月5日承認、申請資料概要ヘ.2.3、ヘ.3.2.1.vi、ヘ.4) [L20070831007] 8) 社内資料:健康人における薬物動態(海外データ)(2002年7月5日承認、申 請資料概要ヘ.3.2.1.i) [L20070831008] 9) Jannuzzo Maria Gabriella et al.:Cancer Chemother Pharmacol.2004; 53(6):475-481 10)田部井 敏夫ほか:癌と化学療法.2002;29(7):1199-1209 11)渡辺 亨ほか:癌と化学療法.2002;29(7):1211-1221 12)社内資料:第二次療法における第II相試験(海外データ)(2002年7月5日 承認、申請資料概要ト.1.3) [L20070831011] 13)Kvinnaland, S. et al.:Eur J Cancer.2000;36(8):976-982 14)Kaufmann, M. et al.:J Clin Oncol.2000;18(7):1399-1411 15)社内資料:術後補助療法としてタモキシフェンを2から3年間投与された閉 経後原発乳癌患者を対象にエキセメスタン療法への切り替えとタモキシ フェン療法継続とを比較する無作為化二重盲検試験 [L20041214003] 16)Lonning, P. E. et al.:J Clin Oncol.2005;23(22):5126-5137 17)社内資料:閉経後患者における転移性乳癌に対する第一次ホルモン療法と してのエキセメスタンおよびタモキシフェンを比較する無作為化第II-III 相試験 [L20060111037]</div>"
            }
          },
          {
            "title": "24. 文献請求先及び問い合わせ先",
            "code": {
              "coding": [
                {
                  "system": "https://pmda.jp/",
                  "code": "24"
                }
              ],
              "text": "24. 文献請求先及び問い合わせ先"
            },
            "text": {
              "status": "additional",
              "div": "<div xmlns=\"http://www.w3.org/1999/xhtml\">ファイザー株式会社 製品情報センター 〒151-8589 東京都渋谷区代々木3-22-7 学術情報ダイヤル 0120-664-467 FAX 03-3379-3053</div>"
            }
          },
          {
            "title": "26. 製造販売業者等",
            "code": {
              "coding": [
                {
                  "system": "https://pmda.jp/",
                  "code": "26"
                }
              ],
              "text": "26. 製造販売業者等"
            },
            "text": {
              "status": "additional",
              "div": "<div xmlns=\"http://www.w3.org/1999/xhtml\">ファイザー株式会社 東京都渋谷区代々木3-22-7</div>"
            }
          }
        ]
      }
    },
    {
      "resource": {
        "resourceType": "Organization",
        "id": "7f257409-3b65-401d-a246-7ae51e298fbb",
        "meta": {
          "profile": [
            "http://hl7.eu/fhir/ig/gravitate-health/StructureDefinition/Organization-uv-epi"
          ]
        },
        "text": {
          "status": "generated",
          "div": "<div xmlns=\"http://www.w3.org/1999/xhtml\"><p><b>Generated Narrative</b></p><div style=\"display: inline-block; background-color: #d9e0e7; padding: 6px; margin: 4px; border: 1px solid #8da1b4; border-radius: 5px; line-height: 60%\"><p style=\"margin-bottom: 0px\">Resource \"7f257409-3b65-401d-a246-7ae51e298fbb\" </p><p style=\"margin-bottom: 0px\">Profile: <a href=\"StructureDefinition-Organization-uv-epi.html\">Organization (ePI)</a></p></div><p><b>identifier</b>: id: 672212 (OFFICIAL)</p><p><b>active</b>: true</p><p><b>type</b>: Manufacturer <span style=\"background: LightGoldenRodYellow; margin: 4px; border: 1px solid khaki\"> (#tbd \"Marketing authorisation holder\")</span></p><p><b>name</b>: Pfizer, Inc.</p><p><b>telecom</b>: ph: 0120-664-467(WORK), fax: 03-3379-3053(WORK)</p><p><b>address</b>: 3-22-7 Yoyogi, Shibuya-ku, Tokyo(WORK)</p></div>"
        },
        "identifier": [
          {
            "use": "official",
            "system": "https://pmda-org-id",
            "value": "672212"
          }
        ],
        "active": true,
        "type": [
          {
            "coding": [
              {
                "system": "https://PMDA-org-type.jp/",
                "code": "tbd",
                "display": "Marketing authorisation holder"
              }
            ],
            "text": "Manufacturer"
          }
        ],
        "name": "Pfizer, Inc.",
        "telecom": [
          {
            "system": "phone",
            "value": "0120-664-467",
            "use": "work"
          },
          {
            "system": "fax",
            "value": "03-3379-3053",
            "use": "work"
          }
        ],
        "address": [
          {
            "use": "work",
            "type": "physical",
            "text": "3-22-7 Yoyogi, Shibuya-ku, Tokyo",
            "line": [
              "3-22-7 Yoyogi"
            ],
            "city": "Tokyo",
            "country": "JP"
          }
        ]
      }
    },
    {
      "resource": {
        "resourceType": "RegulatedAuthorization",
        "id": "15c6f86f-8665-4bd6-86da-a3a61fe16084",
        "meta": {
          "profile": [
            "http://hl7.eu/fhir/ig/gravitate-health/StructureDefinition/RegulatedAuthorization-uv-epi"
          ]
        },
        "text": {
          "status": "generated",
          "div": "<div xmlns=\"http://www.w3.org/1999/xhtml\"><p><b>Generated Narrative</b></p><div style=\"display: inline-block; background-color: #d9e0e7; padding: 6px; margin: 4px; border: 1px solid #8da1b4; border-radius: 5px; line-height: 60%\"><p style=\"margin-bottom: 0px\">Resource \"15c6f86f-8665-4bd6-86da-a3a61fe16084\" </p><p style=\"margin-bottom: 0px\">Profile: <a href=\"StructureDefinition-RegulatedAuthorization-uv-epi.html\">RegulatedAuthorization (ePI)</a></p></div><p><b>identifier</b>: id: 21400AMY00186 (OFFICIAL)</p><p><b>subject</b>: <a href=\"#MedicinalProductDefinition_117616c7-3bcc-4665-8e12-0e93447e679e\">See above (MedicinalProductDefinition/117616c7-3bcc-4665-8e12-0e93447e679e)</a></p><p><b>type</b>: Marketing Authorisation <span style=\"background: LightGoldenRodYellow; margin: 4px; border: 1px solid khaki\"> (#/#100000072062)</span></p><p><b>region</b>: Japan <span style=\"background: LightGoldenRodYellow; margin: 4px; border: 1px solid khaki\"> (unknown#jp)</span></p><p><b>status</b>: Active <span style=\"background: LightGoldenRodYellow; margin: 4px; border: 1px solid khaki\"> (<a href=\"http://build.fhir.org/codesystem-publication-status.html\">PublicationStatus</a>#active)</span></p><p><b>statusDate</b>: 2002-08-01 01:28:17+0000</p><p><b>holder</b>: <a href=\"#Organization_7f257409-3b65-401d-a246-7ae51e298fbb\">See above (Organization/7f257409-3b65-401d-a246-7ae51e298fbb)</a></p></div>"
        },
        "identifier": [
          {
            "use": "official",
            "system": "https://pmda-approvalandlicenseno/",
            "value": "21400AMY00186"
          }
        ],
        "subject": [
          {
            "reference": "MedicinalProductDefinition/117616c7-3bcc-4665-8e12-0e93447e679e"
          }
        ],
        "type": {
          "coding": [
            {
              "system": "https://spor.ema.europa.eu/rmswi/",
              "code": "/#100000072062"
            }
          ],
          "text": "Marketing Authorisation"
        },
        "region": [
          {
            "coding": [
              {
                "system": "urn:iso:std:iso:3166",
                "code": "jp"
              }
            ],
            "text": "Japan"
          }
        ],
        "status": {
          "coding": [
            {
              "system": "http://hl7.org/fhir/publication-status",
              "code": "active"
            }
          ],
          "text": "Active"
        },
        "statusDate": "2002-08-01T13:28:17Z",
        "holder": {
          "reference": "Organization/7f257409-3b65-401d-a246-7ae51e298fbb"
        }
      }
    },
    {
      "resource": {
        "resourceType": "MedicinalProductDefinition",
        "id": "117616c7-3bcc-4665-8e12-0e93447e679e",
        "meta": {
          "profile": [
            "http://hl7.eu/fhir/ig/gravitate-health/StructureDefinition/MedicinalProductDefinition-uv-epi"
          ]
        },
        "text": {
          "status": "generated",
          "div": "<div xmlns=\"http://www.w3.org/1999/xhtml\"><p><b>Generated Narrative</b></p><div style=\"display: inline-block; background-color: #d9e0e7; padding: 6px; margin: 4px; border: 1px solid #8da1b4; border-radius: 5px; line-height: 60%\"><p style=\"margin-bottom: 0px\">Resource \"117616c7-3bcc-4665-8e12-0e93447e679e\" </p><p style=\"margin-bottom: 0px\">Profile: <a href=\"StructureDefinition-MedicinalProductDefinition-uv-epi.html\">MedicinalProductDefinition (ePI)</a></p></div><p><b>identifier</b>: id: 123456</p><p><b>type</b>: Medicinal Product <span style=\"background: LightGoldenRodYellow; margin: 4px; border: 1px solid khaki\"> (<a href=\"http://build.fhir.org/codesystem-medicinal-product-type.html\">MedicinalProductType</a>#MedicinalProduct)</span></p><p><b>domain</b>: Human use <span style=\"background: LightGoldenRodYellow; margin: 4px; border: 1px solid khaki\"> (<a href=\"http://build.fhir.org/codesystem-medicinal-product-domain.html\">MedicinalProductDomain</a>#Human)</span></p><p><b>status</b>: Active <span style=\"background: LightGoldenRodYellow; margin: 4px; border: 1px solid khaki\"> (<a href=\"http://build.fhir.org/codesystem-publication-status.html\">PublicationStatus</a>#active)</span></p><p><b>legalStatusOfSupply</b>: Medicinal product subject to medical prescription <span style=\"background: LightGoldenRodYellow; margin: 4px; border: 1px solid khaki\"> (<a href=\"CodeSystem-CodeSystemUvEPIRrmswi.html\">Referentials Management Services CodeSystem</a>#100000072084)</span></p><blockquote><p><b>name</b></p><p><b>productName</b>: Aromasin (exemestane) Tablets 25 mg</p><p><b>type</b>: Full name <span style=\"background: LightGoldenRodYellow; margin: 4px; border: 1px solid khaki\"> (<a href=\"CodeSystem-CodeSystemUvEPIRrmswi.html\">Referentials Management Services CodeSystem</a>#220000000001)</span></p><h3>NameParts</h3><table class=\"grid\"><tr><td>-</td><td><b>Part</b></td><td><b>Type</b></td></tr><tr><td>*</td><td>Tablet</td><td>Pharmaceutical dose form part <span style=\"background: LightGoldenRodYellow; margin: 4px; border: 1px solid khaki\"> (<a href=\"CodeSystem-CodeSystemUvEPIRrmswi.html\">Referentials Management Services CodeSystem</a>#220000000005)</span></td></tr></table><h3>CountryLanguages</h3><table class=\"grid\"><tr><td>-</td><td><b>Country</b></td><td><b>Jurisdiction</b></td><td><b>Language</b></td></tr><tr><td>*</td><td>Japan <span style=\"background: LightGoldenRodYellow; margin: 4px; border: 1px solid khaki\"> (unknown#jp)</span></td><td>Japan <span style=\"background: LightGoldenRodYellow; margin: 4px; border: 1px solid khaki\"> (unknown#jp)</span></td><td>Japanese <span style=\"background: LightGoldenRodYellow; margin: 4px; border: 1px solid khaki\"> (unknown#ja)</span></td></tr></table></blockquote></div>"
        },
        "identifier": [
          {
            "system": "https://spor.ema.europa.eu/pmswi",
            "value": "123456"
          }
        ],
        "type": {
          "coding": [
            {
              "system": "http://hl7.org/fhir/medicinal-product-type",
              "code": "MedicinalProduct"
            }
          ],
          "text": "Medicinal Product"
        },
        "domain": {
          "coding": [
            {
              "system": "http://hl7.org/fhir/medicinal-product-domain",
              "code": "Human"
            }
          ],
          "text": "Human use"
        },
        "status": {
          "coding": [
            {
              "system": "http://hl7.org/fhir/publication-status",
              "code": "active",
              "display": "Active"
            }
          ]
        },
        "legalStatusOfSupply": {
          "coding": [
            {
              "system": "https://spor.ema.europa.eu/rmswi",
              "code": "100000072084"
            }
          ],
          "text": "Medicinal product subject to medical prescription"
        },
        "name": [
          {
            "productName": "Aromasin (exemestane) Tablets 25 mg",
            "type": {
              "coding": [
                {
                  "system": "https://spor.ema.europa.eu/rmswi",
                  "code": "220000000001"
                }
              ],
              "text": "Full name"
            },
            "namePart": [
              {
                "part": "Tablet",
                "type": {
                  "coding": [
                    {
                      "system": "https://spor.ema.europa.eu/rmswi",
                      "code": "220000000005"
                    }
                  ],
                  "text": "Pharmaceutical dose form part"
                }
              }
            ],
            "countryLanguage": [
              {
                "country": {
                  "coding": [
                    {
                      "system": "urn:iso:std:iso:3166",
                      "code": "jp"
                    }
                  ],
                  "text": "Japan"
                },
                "jurisdiction": {
                  "coding": [
                    {
                      "system": "urn:iso:std:iso:3166",
                      "code": "jp"
                    }
                  ],
                  "text": "Japan"
                },
                "language": {
                  "coding": [
                    {
                      "system": "urn:iso:std:iso:639-1",
                      "code": "ja"
                    }
                  ],
                  "text": "Japanese"
                }
              }
            ]
          }
        ]
      }
    },
    {
      "resource": {
        "resourceType": "PackagedProductDefinition",
        "id": "bb536b04-39f1-4e0a-a723-e9079fd5e994",
        "meta": {
          "profile": [
            "http://hl7.eu/fhir/ig/gravitate-health/StructureDefinition/PackagedProductDefinition-uv-epi"
          ]
        },
        "text": {
          "status": "generated",
          "div": "<div xmlns=\"http://www.w3.org/1999/xhtml\"><p><b>Generated Narrative</b></p><div style=\"display: inline-block; background-color: #d9e0e7; padding: 6px; margin: 4px; border: 1px solid #8da1b4; border-radius: 5px; line-height: 60%\"><p style=\"margin-bottom: 0px\">Resource \"bb536b04-39f1-4e0a-a723-e9079fd5e994\" </p><p style=\"margin-bottom: 0px\">Profile: <a href=\"StructureDefinition-PackagedProductDefinition-uv-epi.html\">PackagedProductDefinition (ePI)</a></p></div><p><b>identifier</b>: id: 4291012F1022_4_02-001 (OFFICIAL)</p><p><b>name</b>: Aromasin (exemestane) Tablets 25 mg - 28 tablets [14 tablets (PTP) x 2]</p><p><b>type</b>: Chemical Medininal Prodcut <span style=\"background: LightGoldenRodYellow; margin: 4px; border: 1px solid khaki\"> (<a href=\"CodeSystem-CodeSystemUvEPIRrmswi.html\">Referentials Management Services CodeSystem</a>#100000155527)</span></p><p><b>packageFor</b>: <a href=\"#MedicinalProductDefinition_117616c7-3bcc-4665-8e12-0e93447e679e\">See above (MedicinalProductDefinition/117616c7-3bcc-4665-8e12-0e93447e679e)</a></p><p><b>status</b>: Active <span style=\"background: LightGoldenRodYellow; margin: 4px; border: 1px solid khaki\"> (<a href=\"http://build.fhir.org/codesystem-publication-status.html\">PublicationStatus</a>#active)</span></p><p><b>statusDate</b>: 2002-08-01 01:28:17+0000</p><p><b>containedItemQuantity</b>: 28 tablet</p><p><b>manufacturer</b>: <a href=\"#Organization_7f257409-3b65-401d-a246-7ae51e298fbb\">See above (Organization/7f257409-3b65-401d-a246-7ae51e298fbb)</a></p><blockquote><p><b>package</b></p><p><b>identifier</b>: id: 123456</p><p><b>type</b>: Blister <span style=\"background: LightGoldenRodYellow; margin: 4px; border: 1px solid khaki\"> (<a href=\"CodeSystem-CodeSystemUvEPIRrmswi.html\">Referentials Management Services CodeSystem</a>#30007000)</span></p><p><b>quantity</b>: 1</p><p><b>material</b>: PolyVinyl Chloride <span style=\"background: LightGoldenRodYellow; margin: 4px; border: 1px solid khaki\"> (<a href=\"CodeSystem-CodeSystemUvEPIRrmswi.html\">Referentials Management Services CodeSystem</a>#200000003222)</span></p><blockquote><p><b>containedItem</b></p></blockquote></blockquote></div>"
        },
        "identifier": [
          {
            "use": "official",
            "system": "https://spor.ema.europa.eu/pmswi",
            "value": "4291012F1022_4_02-001"
          }
        ],
        "name": "Aromasin (exemestane) Tablets 25 mg - 28 tablets [14 tablets (PTP) x 2]",
        "type": {
          "coding": [
            {
              "system": "https://spor.ema.europa.eu/rmswi",
              "code": "100000155527"
            }
          ],
          "text": "Chemical Medininal Prodcut"
        },
        "packageFor": [
          {
            "reference": "MedicinalProductDefinition/117616c7-3bcc-4665-8e12-0e93447e679e"
          }
        ],
        "status": {
          "coding": [
            {
              "system": "http://hl7.org/fhir/publication-status",
              "code": "active",
              "display": "Active"
            }
          ]
        },
        "statusDate": "2002-08-01T13:28:17Z",
        "containedItemQuantity": [
          {
            "value": 28,
            "unit": "tablet"
          }
        ],
        "manufacturer": [
          {
            "reference": "Organization/7f257409-3b65-401d-a246-7ae51e298fbb"
          }
        ],
        "package": {
          "identifier": [
            {
              "system": "https://spor.ema.europa.eu/pmswi",
              "value": "123456"
            }
          ],
          "type": {
            "coding": [
              {
                "system": "https://spor.ema.europa.eu/rmswi",
                "code": "30007000",
                "display": "Blister"
              }
            ]
          },
          "quantity": 1,
          "material": [
            {
              "coding": [
                {
                  "system": "https://spor.ema.europa.eu/rmswi",
                  "code": "200000003222",
                  "display": "PolyVinyl Chloride"
                }
              ]
            }
          ],
          "containedItem": [
            {
              "item": {
                "reference": {
                  "reference": "ManufacturedItemDefinition/7460b712-82ad-4cce-a756-90b0fa04896c"
                }
              }
            }
          ]
        }
      }
    },
    {
      "resource": {
        "resourceType": "PackagedProductDefinition",
        "id": "39307d03-7ff4-4c0d-9326-36de7beb7cad",
        "meta": {
          "profile": [
            "http://hl7.eu/fhir/ig/gravitate-health/StructureDefinition/PackagedProductDefinition-uv-epi"
          ]
        },
        "text": {
          "status": "generated",
          "div": "<div xmlns=\"http://www.w3.org/1999/xhtml\"><p><b>Generated Narrative</b></p><div style=\"display: inline-block; background-color: #d9e0e7; padding: 6px; margin: 4px; border: 1px solid #8da1b4; border-radius: 5px; line-height: 60%\"><p style=\"margin-bottom: 0px\">Resource \"39307d03-7ff4-4c0d-9326-36de7beb7cad\" </p><p style=\"margin-bottom: 0px\">Profile: <a href=\"StructureDefinition-PackagedProductDefinition-uv-epi.html\">PackagedProductDefinition (ePI)</a></p></div><p><b>identifier</b>: id: 4291012F1022_4_02-002 (OFFICIAL)</p><p><b>name</b>: Aromasin (exemestane) Tablets 25 mg - 140 tablets [14 tablets (PTP) x 10]</p><p><b>type</b>: Chemical Medininal Prodcut <span style=\"background: LightGoldenRodYellow; margin: 4px; border: 1px solid khaki\"> (<a href=\"CodeSystem-CodeSystemUvEPIRrmswi.html\">Referentials Management Services CodeSystem</a>#100000155527)</span></p><p><b>packageFor</b>: <a href=\"#MedicinalProductDefinition_117616c7-3bcc-4665-8e12-0e93447e679e\">See above (MedicinalProductDefinition/117616c7-3bcc-4665-8e12-0e93447e679e)</a></p><p><b>status</b>: Active <span style=\"background: LightGoldenRodYellow; margin: 4px; border: 1px solid khaki\"> (<a href=\"http://build.fhir.org/codesystem-publication-status.html\">PublicationStatus</a>#active)</span></p><p><b>statusDate</b>: 2002-08-01 01:28:17+0000</p><p><b>containedItemQuantity</b>: 140 tablet</p><p><b>manufacturer</b>: <a href=\"#Organization_7f257409-3b65-401d-a246-7ae51e298fbb\">See above (Organization/7f257409-3b65-401d-a246-7ae51e298fbb)</a></p><blockquote><p><b>package</b></p><p><b>identifier</b>: id: 78910</p><p><b>type</b>: Blister <span style=\"background: LightGoldenRodYellow; margin: 4px; border: 1px solid khaki\"> (<a href=\"CodeSystem-CodeSystemUvEPIRrmswi.html\">Referentials Management Services CodeSystem</a>#30007000)</span></p><p><b>quantity</b>: 1</p><p><b>material</b>: PolyVinyl Chloride <span style=\"background: LightGoldenRodYellow; margin: 4px; border: 1px solid khaki\"> (<a href=\"CodeSystem-CodeSystemUvEPIRrmswi.html\">Referentials Management Services CodeSystem</a>#200000003222)</span></p><blockquote><p><b>containedItem</b></p></blockquote></blockquote></div>"
        },
        "identifier": [
          {
            "use": "official",
            "system": "https://pmda-packinsertno/",
            "value": "4291012F1022_4_02-002"
          }
        ],
        "name": "Aromasin (exemestane) Tablets 25 mg - 140 tablets [14 tablets (PTP) x 10]",
        "type": {
          "coding": [
            {
              "system": "https://spor.ema.europa.eu/rmswi",
              "code": "100000155527"
            }
          ],
          "text": "Chemical Medininal Prodcut"
        },
        "packageFor": [
          {
            "reference": "MedicinalProductDefinition/117616c7-3bcc-4665-8e12-0e93447e679e"
          }
        ],
        "status": {
          "coding": [
            {
              "system": "http://hl7.org/fhir/publication-status",
              "code": "active",
              "display": "Active"
            }
          ]
        },
        "statusDate": "2002-08-01T13:28:17Z",
        "containedItemQuantity": [
          {
            "value": 140,
            "unit": "tablet"
          }
        ],
        "manufacturer": [
          {
            "reference": "Organization/7f257409-3b65-401d-a246-7ae51e298fbb"
          }
        ],
        "package": {
          "identifier": [
            {
              "system": "https://spor.ema.europa.eu/pmswi",
              "value": "78910"
            }
          ],
          "type": {
            "coding": [
              {
                "system": "https://spor.ema.europa.eu/rmswi",
                "code": "30007000",
                "display": "Blister"
              }
            ]
          },
          "quantity": 1,
          "material": [
            {
              "coding": [
                {
                  "system": "https://spor.ema.europa.eu/rmswi",
                  "code": "200000003222",
                  "display": "PolyVinyl Chloride"
                }
              ]
            }
          ],
          "containedItem": [
            {
              "item": {
                "reference": {
                  "reference": "ManufacturedItemDefinition/7460b712-82ad-4cce-a756-90b0fa04896c"
                }
              }
            }
          ]
        }
      }
    },
    {
      "resource": {
        "resourceType": "AdministrableProductDefinition",
        "id": "d43df7b9-7815-4eb5-8350-945e4b77d46b",
        "meta": {
          "profile": [
            "http://hl7.eu/fhir/ig/gravitate-health/StructureDefinition/AdministrableProductDefinition-uv-epi"
          ]
        },
        "text": {
          "status": "generated",
          "div": "<div xmlns=\"http://www.w3.org/1999/xhtml\"><p><b>Generated Narrative</b></p><div style=\"display: inline-block; background-color: #d9e0e7; padding: 6px; margin: 4px; border: 1px solid #8da1b4; border-radius: 5px; line-height: 60%\"><p style=\"margin-bottom: 0px\">Resource \"d43df7b9-7815-4eb5-8350-945e4b77d46b\" </p><p style=\"margin-bottom: 0px\">Profile: <a href=\"StructureDefinition-AdministrableProductDefinition-uv-epi.html\">AdministrableProductDefinition (ePI)</a></p></div><p><b>identifier</b>: id: abc123</p><p><b>status</b>: active</p><p><b>formOf</b>: <a href=\"#MedicinalProductDefinition_117616c7-3bcc-4665-8e12-0e93447e679e\">See above (MedicinalProductDefinition/117616c7-3bcc-4665-8e12-0e93447e679e)</a></p><p><b>administrableDoseForm</b>: Tablet <span style=\"background: LightGoldenRodYellow; margin: 4px; border: 1px solid khaki\"> (#10219000)</span></p><p><b>unitOfPresentation</b>: Tablet <span style=\"background: LightGoldenRodYellow; margin: 4px; border: 1px solid khaki\"> (#15054000)</span></p><p><b>producedFrom</b>: <a href=\"#ManufacturedItemDefinition_7460b712-82ad-4cce-a756-90b0fa04896c\">See above (ManufacturedItemDefinition/7460b712-82ad-4cce-a756-90b0fa04896c)</a></p><blockquote><p><b>routeOfAdministration</b></p><p><b>code</b>: Oral use <span style=\"background: LightGoldenRodYellow; margin: 4px; border: 1px solid khaki\"> (#20053000)</span></p><h3>TargetSpecies</h3><table class=\"grid\"><tr><td>-</td><td><b>Code</b></td></tr><tr><td>*</td><td>Human <span style=\"background: LightGoldenRodYellow; margin: 4px; border: 1px solid khaki\"> (#/#100000109093)</span></td></tr></table></blockquote></div>"
        },
        "identifier": [
          {
            "system": "https://www.who-umc.org/phpid",
            "value": "abc123"
          }
        ],
        "status": "active",
        "formOf": [
          {
            "reference": "MedicinalProductDefinition/117616c7-3bcc-4665-8e12-0e93447e679e"
          }
        ],
        "administrableDoseForm": {
          "coding": [
            {
              "system": "https://standardterms.edqm.eu/browse/get_concepts_by/SOM/SOM/",
              "code": "10219000"
            }
          ],
          "text": "Tablet"
        },
        "unitOfPresentation": {
          "coding": [
            {
              "system": "https://standardterms.edqm.eu/browse/get_concepts/UOP/",
              "code": "15054000"
            }
          ],
          "text": "Tablet"
        },
        "producedFrom": [
          {
            "reference": "ManufacturedItemDefinition/7460b712-82ad-4cce-a756-90b0fa04896c"
          }
        ],
        "routeOfAdministration": [
          {
            "code": {
              "coding": [
                {
                  "system": "https://standardterms.edqm.eu/browse/get_concepts/ROA/",
                  "code": "20053000"
                }
              ],
              "text": "Oral use"
            },
            "targetSpecies": [
              {
                "code": {
                  "coding": [
                    {
                      "system": "https://spor.ema.europa.eu/rmswi/",
                      "code": "/#100000109093"
                    }
                  ],
                  "text": "Human"
                }
              }
            ]
          }
        ]
      }
    },
    {
      "resource": {
        "resourceType": "ManufacturedItemDefinition",
        "id": "7460b712-82ad-4cce-a756-90b0fa04896c",
        "meta": {
          "profile": [
            "http://hl7.eu/fhir/ig/gravitate-health/StructureDefinition/ManufacturedItemDefinition-uv-epi"
          ]
        },
        "text": {
          "status": "generated",
          "div": "<div xmlns=\"http://www.w3.org/1999/xhtml\"><p><b>Generated Narrative</b></p><div style=\"display: inline-block; background-color: #d9e0e7; padding: 6px; margin: 4px; border: 1px solid #8da1b4; border-radius: 5px; line-height: 60%\"><p style=\"margin-bottom: 0px\">Resource \"7460b712-82ad-4cce-a756-90b0fa04896c\" </p><p style=\"margin-bottom: 0px\">Profile: <a href=\"StructureDefinition-ManufacturedItemDefinition-uv-epi.html\">ManufacturedItemDefinition (ePI)</a></p></div><p><b>identifier</b>: id: 874291 (OFFICIAL)</p><p><b>status</b>: active</p><p><b>manufacturedDoseForm</b>: Tablet <span style=\"background: LightGoldenRodYellow; margin: 4px; border: 1px solid khaki\"> (#10219000)</span></p><p><b>unitOfPresentation</b>: Tablet <span style=\"background: LightGoldenRodYellow; margin: 4px; border: 1px solid khaki\"> (#15054000)</span></p><p><b>manufacturer</b>: <a href=\"#Organization_7f257409-3b65-401d-a246-7ae51e298fbb\">See above (Organization/7f257409-3b65-401d-a246-7ae51e298fbb)</a></p></div>"
        },
        "identifier": [
          {
            "use": "official",
            "system": "https://pmda-sccj",
            "value": "874291"
          }
        ],
        "status": "active",
        "manufacturedDoseForm": {
          "coding": [
            {
              "system": "https://standardterms.edqm.eu/browse/get_concepts_by/SOM/SOM/",
              "code": "10219000"
            }
          ],
          "text": "Tablet"
        },
        "unitOfPresentation": {
          "coding": [
            {
              "system": "https://standardterms.edqm.eu/browse/get_concepts/UOP/",
              "code": "15054000"
            }
          ],
          "text": "Tablet"
        },
        "manufacturer": [
          {
            "reference": "Organization/7f257409-3b65-401d-a246-7ae51e298fbb"
          }
        ]
      }
    },
    {
      "resource": {
        "resourceType": "Ingredient",
        "id": "41089f24-89ce-4fda-a038-70f3cd28ab06",
        "meta": {
          "profile": [
            "http://hl7.eu/fhir/ig/gravitate-health/StructureDefinition/Ingredient-uv-epi"
          ]
        },
        "text": {
          "status": "generated",
          "div": "<div xmlns=\"http://www.w3.org/1999/xhtml\"><p><b>Generated Narrative</b></p><div style=\"display: inline-block; background-color: #d9e0e7; padding: 6px; margin: 4px; border: 1px solid #8da1b4; border-radius: 5px; line-height: 60%\"><p style=\"margin-bottom: 0px\">Resource \"41089f24-89ce-4fda-a038-70f3cd28ab06\" </p><p style=\"margin-bottom: 0px\">Profile: <a href=\"StructureDefinition-Ingredient-uv-epi.html\">Ingredient (ePI)</a></p></div><p><b>identifier</b>: id: NY22HMQ4BX (OFFICIAL)</p><p><b>status</b>: active</p><p><b>for</b>: <a href=\"#ManufacturedItemDefinition_7460b712-82ad-4cce-a756-90b0fa04896c\">See above (ManufacturedItemDefinition/7460b712-82ad-4cce-a756-90b0fa04896c)</a></p><p><b>role</b>: active <span style=\"background: LightGoldenRodYellow; margin: 4px; border: 1px solid khaki\"> (#00000072072)</span></p><h3>Manufacturers</h3><table class=\"grid\"><tr><td>-</td><td><b>Manufacturer</b></td></tr><tr><td>*</td><td><a href=\"#Organization_7f257409-3b65-401d-a246-7ae51e298fbb\">See above (Organization/7f257409-3b65-401d-a246-7ae51e298fbb)</a></td></tr></table><blockquote><p><b>substance</b></p><h3>Strengths</h3><table class=\"grid\"><tr><td>-</td><td><b>Presentation[x]</b></td><td><b>Basis</b></td></tr><tr><td>*</td><td>25 mg</td><td>active ingredient - basis of strength <span style=\"background: LightGoldenRodYellow; margin: 4px; border: 1px solid khaki\"> (v3-RoleClassIngredientEntity#ACTIB)</span></td></tr></table></blockquote></div>"
        },
        "identifier": {
          "use": "official",
          "system": "https://gsrs.ncats.nih.gov/ginas/app/beta/",
          "value": "NY22HMQ4BX"
        },
        "status": "active",
        "for": [
          {
            "reference": "ManufacturedItemDefinition/7460b712-82ad-4cce-a756-90b0fa04896c"
          }
        ],
        "role": {
          "coding": [
            {
              "system": "https://spor.ema.europa.eu/rmswi/",
              "code": "00000072072"
            }
          ],
          "text": "active"
        },
        "manufacturer": [
          {
            "manufacturer": {
              "reference": "Organization/7f257409-3b65-401d-a246-7ae51e298fbb"
            }
          }
        ],
        "substance": {
          "code": {
            "concept": {
              "coding": [
                {
                  "system": "https://gsrs.ncats.nih.gov/ginas/app/beta/",
                  "code": "NY22HMQ4BX",
                  "display": "exemestane"
                }
              ]
            }
          },
          "strength": [
            {
              "presentationQuantity": {
                "value": 25,
                "unit": "mg"
              },
              "basis": {
                "coding": [
                  {
                    "system": "http://terminology.hl7.org/ValueSet/v3-RoleClassIngredientEntity",
                    "code": "ACTIB"
                  }
                ],
                "text": "active ingredient - basis of strength"
              }
            }
          ]
        }
      }
    },
    {
      "resource": {
        "resourceType": "Ingredient",
        "id": "b3773440-614c-4007-bc1c-2fec305b6b81",
        "meta": {
          "profile": [
            "http://hl7.eu/fhir/ig/gravitate-health/StructureDefinition/Ingredient-uv-epi"
          ]
        },
        "text": {
          "status": "generated",
          "div": "<div xmlns=\"http://www.w3.org/1999/xhtml\"><p><b>Generated Narrative</b></p><div style=\"display: inline-block; background-color: #d9e0e7; padding: 6px; margin: 4px; border: 1px solid #8da1b4; border-radius: 5px; line-height: 60%\"><p style=\"margin-bottom: 0px\">Resource \"b3773440-614c-4007-bc1c-2fec305b6b81\" </p><p style=\"margin-bottom: 0px\">Profile: <a href=\"StructureDefinition-Ingredient-uv-epi.html\">Ingredient (ePI)</a></p></div><p><b>identifier</b>: id: R12CBM0EIZ (OFFICIAL)</p><p><b>status</b>: active</p><p><b>for</b>: <a href=\"#ManufacturedItemDefinition_7460b712-82ad-4cce-a756-90b0fa04896c\">See above (ManufacturedItemDefinition/7460b712-82ad-4cce-a756-90b0fa04896c)</a></p><p><b>role</b>: Excipient <span style=\"background: LightGoldenRodYellow; margin: 4px; border: 1px solid khaki\"> (#100000072082)</span></p><h3>Manufacturers</h3><table class=\"grid\"><tr><td>-</td><td><b>Manufacturer</b></td></tr><tr><td>*</td><td><a href=\"#Organization_7f257409-3b65-401d-a246-7ae51e298fbb\">See above (Organization/7f257409-3b65-401d-a246-7ae51e298fbb)</a></td></tr></table><blockquote><p><b>substance</b></p></blockquote></div>"
        },
        "identifier": {
          "use": "official",
          "system": "https://gsrs.ncats.nih.gov/ginas/app/beta/",
          "value": "R12CBM0EIZ"
        },
        "status": "active",
        "for": [
          {
            "reference": "ManufacturedItemDefinition/7460b712-82ad-4cce-a756-90b0fa04896c"
          }
        ],
        "role": {
          "coding": [
            {
              "system": "https://spor.ema.europa.eu/rmswi/",
              "code": "100000072082"
            }
          ],
          "text": "Excipient"
        },
        "manufacturer": [
          {
            "manufacturer": {
              "reference": "Organization/7f257409-3b65-401d-a246-7ae51e298fbb"
            }
          }
        ],
        "substance": {
          "code": {
            "concept": {
              "coding": [
                {
                  "system": "https://gsrs.ncats.nih.gov/ginas/app/beta/",
                  "code": "R12CBM0EIZ",
                  "display": "Carnauba wax"
                }
              ]
            }
          }
        }
      }
    },
    {
      "resource": {
        "resourceType": "Ingredient",
        "id": "aceb61f1-4030-458c-996c-3707c919a0e2",
        "meta": {
          "profile": [
            "http://hl7.eu/fhir/ig/gravitate-health/StructureDefinition/Ingredient-uv-epi"
          ]
        },
        "text": {
          "status": "generated",
          "div": "<div xmlns=\"http://www.w3.org/1999/xhtml\"><p><b>Generated Narrative</b></p><div style=\"display: inline-block; background-color: #d9e0e7; padding: 6px; margin: 4px; border: 1px solid #8da1b4; border-radius: 5px; line-height: 60%\"><p style=\"margin-bottom: 0px\">Resource \"aceb61f1-4030-458c-996c-3707c919a0e2\" </p><p style=\"margin-bottom: 0px\">Profile: <a href=\"StructureDefinition-Ingredient-uv-epi.html\">Ingredient (ePI)</a></p></div><p><b>identifier</b>: id: OP1R32D61U (OFFICIAL)</p><p><b>status</b>: active</p><p><b>for</b>: <a href=\"#ManufacturedItemDefinition_7460b712-82ad-4cce-a756-90b0fa04896c\">See above (ManufacturedItemDefinition/7460b712-82ad-4cce-a756-90b0fa04896c)</a></p><p><b>role</b>: Excipient <span style=\"background: LightGoldenRodYellow; margin: 4px; border: 1px solid khaki\"> (#100000072082)</span></p><h3>Manufacturers</h3><table class=\"grid\"><tr><td>-</td><td><b>Manufacturer</b></td></tr><tr><td>*</td><td><a href=\"#Organization_7f257409-3b65-401d-a246-7ae51e298fbb\">See above (Organization/7f257409-3b65-401d-a246-7ae51e298fbb)</a></td></tr></table><blockquote><p><b>substance</b></p></blockquote></div>"
        },
        "identifier": {
          "use": "official",
          "system": "https://gsrs.ncats.nih.gov/ginas/app/beta/",
          "value": "OP1R32D61U"
        },
        "status": "active",
        "for": [
          {
            "reference": "ManufacturedItemDefinition/7460b712-82ad-4cce-a756-90b0fa04896c"
          }
        ],
        "role": {
          "coding": [
            {
              "system": "https://spor.ema.europa.eu/rmswi/",
              "code": "100000072082"
            }
          ],
          "text": "Excipient"
        },
        "manufacturer": [
          {
            "manufacturer": {
              "reference": "Organization/7f257409-3b65-401d-a246-7ae51e298fbb"
            }
          }
        ],
        "substance": {
          "code": {
            "concept": {
              "coding": [
                {
                  "system": "https://gsrs.ncats.nih.gov/ginas/app/beta/",
                  "code": "OP1R32D61U",
                  "display": "crystalline cellulose"
                }
              ]
            }
          }
        }
      }
    },
    {
      "resource": {
        "resourceType": "Ingredient",
        "id": "868c0677-e53b-4f0d-a6aa-a7473756b8e9",
        "meta": {
          "profile": [
            "http://hl7.eu/fhir/ig/gravitate-health/StructureDefinition/Ingredient-uv-epi"
          ]
        },
        "text": {
          "status": "generated",
          "div": "<div xmlns=\"http://www.w3.org/1999/xhtml\"><p><b>Generated Narrative</b></p><div style=\"display: inline-block; background-color: #d9e0e7; padding: 6px; margin: 4px; border: 1px solid #8da1b4; border-radius: 5px; line-height: 60%\"><p style=\"margin-bottom: 0px\">Resource \"868c0677-e53b-4f0d-a6aa-a7473756b8e9\" </p><p style=\"margin-bottom: 0px\">Profile: <a href=\"StructureDefinition-Ingredient-uv-epi.html\">Ingredient (ePI)</a></p></div><p><b>identifier</b>: id: 3OWL53L36A (OFFICIAL)</p><p><b>status</b>: active</p><p><b>for</b>: <a href=\"#ManufacturedItemDefinition_7460b712-82ad-4cce-a756-90b0fa04896c\">See above (ManufacturedItemDefinition/7460b712-82ad-4cce-a756-90b0fa04896c)</a></p><p><b>role</b>: Excipient <span style=\"background: LightGoldenRodYellow; margin: 4px; border: 1px solid khaki\"> (#100000072082)</span></p><h3>Manufacturers</h3><table class=\"grid\"><tr><td>-</td><td><b>Manufacturer</b></td></tr><tr><td>*</td><td><a href=\"#Organization_7f257409-3b65-401d-a246-7ae51e298fbb\">See above (Organization/7f257409-3b65-401d-a246-7ae51e298fbb)</a></td></tr></table><blockquote><p><b>substance</b></p></blockquote></div>"
        },
        "identifier": {
          "use": "official",
          "system": "https://gsrs.ncats.nih.gov/ginas/app/beta/",
          "value": "3OWL53L36A"
        },
        "status": "active",
        "for": [
          {
            "reference": "ManufacturedItemDefinition/7460b712-82ad-4cce-a756-90b0fa04896c"
          }
        ],
        "role": {
          "coding": [
            {
              "system": "https://spor.ema.europa.eu/rmswi/",
              "code": "100000072082"
            }
          ],
          "text": "Excipient"
        },
        "manufacturer": [
          {
            "manufacturer": {
              "reference": "Organization/7f257409-3b65-401d-a246-7ae51e298fbb"
            }
          }
        ],
        "substance": {
          "code": {
            "concept": {
              "coding": [
                {
                  "system": "https://gsrs.ncats.nih.gov/ginas/app/beta/",
                  "code": "3OWL53L36A",
                  "display": "MANNITOL"
                }
              ]
            }
          }
        }
      }
    },
    {
      "resource": {
        "resourceType": "Ingredient",
        "id": "fc31fc43-2825-41c6-8757-e1c0cab29712",
        "meta": {
          "profile": [
            "http://hl7.eu/fhir/ig/gravitate-health/StructureDefinition/Ingredient-uv-epi"
          ]
        },
        "text": {
          "status": "generated",
          "div": "<div xmlns=\"http://www.w3.org/1999/xhtml\"><p><b>Generated Narrative</b></p><div style=\"display: inline-block; background-color: #d9e0e7; padding: 6px; margin: 4px; border: 1px solid #8da1b4; border-radius: 5px; line-height: 60%\"><p style=\"margin-bottom: 0px\">Resource \"fc31fc43-2825-41c6-8757-e1c0cab29712\" </p><p style=\"margin-bottom: 0px\">Profile: <a href=\"StructureDefinition-Ingredient-uv-epi.html\">Ingredient (ePI)</a></p></div><p><b>identifier</b>: id: 3NXW29V3WO (OFFICIAL)</p><p><b>status</b>: active</p><p><b>for</b>: <a href=\"#ManufacturedItemDefinition_7460b712-82ad-4cce-a756-90b0fa04896c\">See above (ManufacturedItemDefinition/7460b712-82ad-4cce-a756-90b0fa04896c)</a></p><p><b>role</b>: Excipient <span style=\"background: LightGoldenRodYellow; margin: 4px; border: 1px solid khaki\"> (#100000072082)</span></p><h3>Manufacturers</h3><table class=\"grid\"><tr><td>-</td><td><b>Manufacturer</b></td></tr><tr><td>*</td><td><a href=\"#Organization_7f257409-3b65-401d-a246-7ae51e298fbb\">See above (Organization/7f257409-3b65-401d-a246-7ae51e298fbb)</a></td></tr></table><blockquote><p><b>substance</b></p></blockquote></div>"
        },
        "identifier": {
          "use": "official",
          "system": "https://gsrs.ncats.nih.gov/ginas/app/beta/",
          "value": "3NXW29V3WO"
        },
        "status": "active",
        "for": [
          {
            "reference": "ManufacturedItemDefinition/7460b712-82ad-4cce-a756-90b0fa04896c"
          }
        ],
        "role": {
          "coding": [
            {
              "system": "https://spor.ema.europa.eu/rmswi/",
              "code": "100000072082"
            }
          ],
          "text": "Excipient"
        },
        "manufacturer": [
          {
            "manufacturer": {
              "reference": "Organization/7f257409-3b65-401d-a246-7ae51e298fbb"
            }
          }
        ],
        "substance": {
          "code": {
            "concept": {
              "coding": [
                {
                  "system": "https://gsrs.ncats.nih.gov/ginas/app/beta/",
                  "code": "3NXW29V3WO",
                  "display": "HYPROMELLOSE, UNSPECIFIED "
                }
              ]
            }
          }
        }
      }
    },
    {
      "resource": {
        "resourceType": "Ingredient",
        "id": "aba217d4-5bc4-4690-b100-401cae4390ed",
        "meta": {
          "profile": [
            "http://hl7.eu/fhir/ig/gravitate-health/StructureDefinition/Ingredient-uv-epi"
          ]
        },
        "text": {
          "status": "generated",
          "div": "<div xmlns=\"http://www.w3.org/1999/xhtml\"><p><b>Generated Narrative</b></p><div style=\"display: inline-block; background-color: #d9e0e7; padding: 6px; margin: 4px; border: 1px solid #8da1b4; border-radius: 5px; line-height: 60%\"><p style=\"margin-bottom: 0px\">Resource \"aba217d4-5bc4-4690-b100-401cae4390ed\" </p><p style=\"margin-bottom: 0px\">Profile: <a href=\"StructureDefinition-Ingredient-uv-epi.html\">Ingredient (ePI)</a></p></div><p><b>identifier</b>: id: ETJ7Z6XBU4 (OFFICIAL)</p><p><b>status</b>: active</p><p><b>for</b>: <a href=\"#ManufacturedItemDefinition_7460b712-82ad-4cce-a756-90b0fa04896c\">See above (ManufacturedItemDefinition/7460b712-82ad-4cce-a756-90b0fa04896c)</a></p><p><b>role</b>: Excipient <span style=\"background: LightGoldenRodYellow; margin: 4px; border: 1px solid khaki\"> (#100000072082)</span></p><h3>Manufacturers</h3><table class=\"grid\"><tr><td>-</td><td><b>Manufacturer</b></td></tr><tr><td>*</td><td><a href=\"#Organization_7f257409-3b65-401d-a246-7ae51e298fbb\">See above (Organization/7f257409-3b65-401d-a246-7ae51e298fbb)</a></td></tr></table><blockquote><p><b>substance</b></p></blockquote></div>"
        },
        "identifier": {
          "use": "official",
          "system": "https://gsrs.ncats.nih.gov/ginas/app/beta/",
          "value": "ETJ7Z6XBU4"
        },
        "status": "active",
        "for": [
          {
            "reference": "ManufacturedItemDefinition/7460b712-82ad-4cce-a756-90b0fa04896c"
          }
        ],
        "role": {
          "coding": [
            {
              "system": "https://spor.ema.europa.eu/rmswi/",
              "code": "100000072082"
            }
          ],
          "text": "Excipient"
        },
        "manufacturer": [
          {
            "manufacturer": {
              "reference": "Organization/7f257409-3b65-401d-a246-7ae51e298fbb"
            }
          }
        ],
        "substance": {
          "code": {
            "concept": {
              "coding": [
                {
                  "system": "https://gsrs.ncats.nih.gov/ginas/app/beta/",
                  "code": "ETJ7Z6XBU4",
                  "display": "light anhydrous silicic acid"
                }
              ]
            }
          }
        }
      }
    },
    {
      "resource": {
        "resourceType": "Ingredient",
        "id": "77f5c3de-eeb4-441f-b37b-f66a4a9bfdc7",
        "meta": {
          "profile": [
            "http://hl7.eu/fhir/ig/gravitate-health/StructureDefinition/Ingredient-uv-epi"
          ]
        },
        "text": {
          "status": "generated",
          "div": "<div xmlns=\"http://www.w3.org/1999/xhtml\"><p><b>Generated Narrative</b></p><div style=\"display: inline-block; background-color: #d9e0e7; padding: 6px; margin: 4px; border: 1px solid #8da1b4; border-radius: 5px; line-height: 60%\"><p style=\"margin-bottom: 0px\">Resource \"77f5c3de-eeb4-441f-b37b-f66a4a9bfdc7\" </p><p style=\"margin-bottom: 0px\">Profile: <a href=\"StructureDefinition-Ingredient-uv-epi.html\">Ingredient (ePI)</a></p></div><p><b>identifier</b>: id: 0E53J927NA (OFFICIAL)</p><p><b>status</b>: active</p><p><b>for</b>: <a href=\"#ManufacturedItemDefinition_7460b712-82ad-4cce-a756-90b0fa04896c\">See above (ManufacturedItemDefinition/7460b712-82ad-4cce-a756-90b0fa04896c)</a></p><p><b>role</b>: Excipient <span style=\"background: LightGoldenRodYellow; margin: 4px; border: 1px solid khaki\"> (#100000072082)</span></p><h3>Manufacturers</h3><table class=\"grid\"><tr><td>-</td><td><b>Manufacturer</b></td></tr><tr><td>*</td><td><a href=\"#Organization_7f257409-3b65-401d-a246-7ae51e298fbb\">See above (Organization/7f257409-3b65-401d-a246-7ae51e298fbb)</a></td></tr></table><blockquote><p><b>substance</b></p></blockquote></div>"
        },
        "identifier": {
          "use": "official",
          "system": "https://gsrs.ncats.nih.gov/ginas/app/beta/",
          "value": "0E53J927NA"
        },
        "status": "active",
        "for": [
          {
            "reference": "ManufacturedItemDefinition/7460b712-82ad-4cce-a756-90b0fa04896c"
          }
        ],
        "role": {
          "coding": [
            {
              "system": "https://spor.ema.europa.eu/rmswi/",
              "code": "100000072082"
            }
          ],
          "text": "Excipient"
        },
        "manufacturer": [
          {
            "manufacturer": {
              "reference": "Organization/7f257409-3b65-401d-a246-7ae51e298fbb"
            }
          }
        ],
        "substance": {
          "code": {
            "concept": {
              "coding": [
                {
                  "system": "https://gsrs.ncats.nih.gov/ginas/app/beta/",
                  "code": "0E53J927NA",
                  "display": "MAGNESIUM CARBONATE"
                }
              ]
            }
          }
        }
      }
    },
    {
      "resource": {
        "resourceType": "Ingredient",
        "id": "ad9f21be-db44-4f3d-80fb-8d61722ef070",
        "meta": {
          "profile": [
            "http://hl7.eu/fhir/ig/gravitate-health/StructureDefinition/Ingredient-uv-epi"
          ]
        },
        "text": {
          "status": "generated",
          "div": "<div xmlns=\"http://www.w3.org/1999/xhtml\"><p><b>Generated Narrative</b></p><div style=\"display: inline-block; background-color: #d9e0e7; padding: 6px; margin: 4px; border: 1px solid #8da1b4; border-radius: 5px; line-height: 60%\"><p style=\"margin-bottom: 0px\">Resource \"ad9f21be-db44-4f3d-80fb-8d61722ef070\" </p><p style=\"margin-bottom: 0px\">Profile: <a href=\"StructureDefinition-Ingredient-uv-epi.html\">Ingredient (ePI)</a></p></div><p><b>identifier</b>: id: 70097M6I30 (OFFICIAL)</p><p><b>status</b>: active</p><p><b>for</b>: <a href=\"#ManufacturedItemDefinition_7460b712-82ad-4cce-a756-90b0fa04896c\">See above (ManufacturedItemDefinition/7460b712-82ad-4cce-a756-90b0fa04896c)</a></p><p><b>role</b>: Excipient <span style=\"background: LightGoldenRodYellow; margin: 4px; border: 1px solid khaki\"> (#100000072082)</span></p><h3>Manufacturers</h3><table class=\"grid\"><tr><td>-</td><td><b>Manufacturer</b></td></tr><tr><td>*</td><td><a href=\"#Organization_7f257409-3b65-401d-a246-7ae51e298fbb\">See above (Organization/7f257409-3b65-401d-a246-7ae51e298fbb)</a></td></tr></table><blockquote><p><b>substance</b></p></blockquote></div>"
        },
        "identifier": {
          "use": "official",
          "system": "https://gsrs.ncats.nih.gov/ginas/app/beta/",
          "value": "70097M6I30"
        },
        "status": "active",
        "for": [
          {
            "reference": "ManufacturedItemDefinition/7460b712-82ad-4cce-a756-90b0fa04896c"
          }
        ],
        "role": {
          "coding": [
            {
              "system": "https://spor.ema.europa.eu/rmswi/",
              "code": "100000072082"
            }
          ],
          "text": "Excipient"
        },
        "manufacturer": [
          {
            "manufacturer": {
              "reference": "Organization/7f257409-3b65-401d-a246-7ae51e298fbb"
            }
          }
        ],
        "substance": {
          "code": {
            "concept": {
              "coding": [
                {
                  "system": "https://gsrs.ncats.nih.gov/ginas/app/beta/",
                  "code": "70097M6I30",
                  "display": "MAGNESIUM STEARATE"
                }
              ]
            }
          }
        }
      }
    },
    {
      "resource": {
        "resourceType": "Ingredient",
        "id": "570a14b4-3e58-4afc-9cc1-4d4b38bcd485",
        "meta": {
          "profile": [
            "http://hl7.eu/fhir/ig/gravitate-health/StructureDefinition/Ingredient-uv-epi"
          ]
        },
        "text": {
          "status": "generated",
          "div": "<div xmlns=\"http://www.w3.org/1999/xhtml\"><p><b>Generated Narrative</b></p><div style=\"display: inline-block; background-color: #d9e0e7; padding: 6px; margin: 4px; border: 1px solid #8da1b4; border-radius: 5px; line-height: 60%\"><p style=\"margin-bottom: 0px\">Resource \"570a14b4-3e58-4afc-9cc1-4d4b38bcd485\" </p><p style=\"margin-bottom: 0px\">Profile: <a href=\"StructureDefinition-Ingredient-uv-epi.html\">Ingredient (ePI)</a></p></div><p><b>identifier</b>: id: A2I8C7HI9T (OFFICIAL)</p><p><b>status</b>: active</p><p><b>for</b>: <a href=\"#ManufacturedItemDefinition_7460b712-82ad-4cce-a756-90b0fa04896c\">See above (ManufacturedItemDefinition/7460b712-82ad-4cce-a756-90b0fa04896c)</a></p><p><b>role</b>: Excipient <span style=\"background: LightGoldenRodYellow; margin: 4px; border: 1px solid khaki\"> (#100000072082)</span></p><h3>Manufacturers</h3><table class=\"grid\"><tr><td>-</td><td><b>Manufacturer</b></td></tr><tr><td>*</td><td><a href=\"#Organization_7f257409-3b65-401d-a246-7ae51e298fbb\">See above (Organization/7f257409-3b65-401d-a246-7ae51e298fbb)</a></td></tr></table><blockquote><p><b>substance</b></p></blockquote></div>"
        },
        "identifier": {
          "use": "official",
          "system": "https://gsrs.ncats.nih.gov/ginas/app/beta/",
          "value": "A2I8C7HI9T"
        },
        "status": "active",
        "for": [
          {
            "reference": "ManufacturedItemDefinition/7460b712-82ad-4cce-a756-90b0fa04896c"
          }
        ],
        "role": {
          "coding": [
            {
              "system": "https://spor.ema.europa.eu/rmswi/",
              "code": "100000072082"
            }
          ],
          "text": "Excipient"
        },
        "manufacturer": [
          {
            "manufacturer": {
              "reference": "Organization/7f257409-3b65-401d-a246-7ae51e298fbb"
            }
          }
        ],
        "substance": {
          "code": {
            "concept": {
              "coding": [
                {
                  "system": "https://gsrs.ncats.nih.gov/ginas/app/beta/",
                  "code": "A2I8C7HI9T",
                  "display": "METHYLPARABEN"
                }
              ]
            }
          }
        }
      }
    },
    {
      "resource": {
        "resourceType": "Ingredient",
        "id": "c33a68c8-aecc-4556-8632-e2f3f7ba5b5a",
        "meta": {
          "profile": [
            "http://hl7.eu/fhir/ig/gravitate-health/StructureDefinition/Ingredient-uv-epi"
          ]
        },
        "text": {
          "status": "generated",
          "div": "<div xmlns=\"http://www.w3.org/1999/xhtml\"><p><b>Generated Narrative</b></p><div style=\"display: inline-block; background-color: #d9e0e7; padding: 6px; margin: 4px; border: 1px solid #8da1b4; border-radius: 5px; line-height: 60%\"><p style=\"margin-bottom: 0px\">Resource \"c33a68c8-aecc-4556-8632-e2f3f7ba5b5a\" </p><p style=\"margin-bottom: 0px\">Profile: <a href=\"StructureDefinition-Ingredient-uv-epi.html\">Ingredient (ePI)</a></p></div><p><b>identifier</b>: id: 30IQX730WE (OFFICIAL)</p><p><b>status</b>: active</p><p><b>for</b>: <a href=\"#ManufacturedItemDefinition_7460b712-82ad-4cce-a756-90b0fa04896c\">See above (ManufacturedItemDefinition/7460b712-82ad-4cce-a756-90b0fa04896c)</a></p><p><b>role</b>: Excipient <span style=\"background: LightGoldenRodYellow; margin: 4px; border: 1px solid khaki\"> (#100000072082)</span></p><h3>Manufacturers</h3><table class=\"grid\"><tr><td>-</td><td><b>Manufacturer</b></td></tr><tr><td>*</td><td><a href=\"#Organization_7f257409-3b65-401d-a246-7ae51e298fbb\">See above (Organization/7f257409-3b65-401d-a246-7ae51e298fbb)</a></td></tr></table><blockquote><p><b>substance</b></p></blockquote></div>"
        },
        "identifier": {
          "use": "official",
          "system": "https://gsrs.ncats.nih.gov/ginas/app/beta/",
          "value": "30IQX730WE"
        },
        "status": "active",
        "for": [
          {
            "reference": "ManufacturedItemDefinition/7460b712-82ad-4cce-a756-90b0fa04896c"
          }
        ],
        "role": {
          "coding": [
            {
              "system": "https://spor.ema.europa.eu/rmswi/",
              "code": "100000072082"
            }
          ],
          "text": "Excipient"
        },
        "manufacturer": [
          {
            "manufacturer": {
              "reference": "Organization/7f257409-3b65-401d-a246-7ae51e298fbb"
            }
          }
        ],
        "substance": {
          "code": {
            "concept": {
              "coding": [
                {
                  "system": "https://gsrs.ncats.nih.gov/ginas/app/beta/",
                  "code": "30IQX730WE",
                  "display": "POLYETHYLENE GLYCOL 6000"
                }
              ]
            }
          }
        }
      }
    },
    {
      "resource": {
        "resourceType": "Ingredient",
        "id": "65bb58dd-b083-4cd3-892f-60fed75967d5",
        "meta": {
          "profile": [
            "http://hl7.eu/fhir/ig/gravitate-health/StructureDefinition/Ingredient-uv-epi"
          ]
        },
        "text": {
          "status": "generated",
          "div": "<div xmlns=\"http://www.w3.org/1999/xhtml\"><p><b>Generated Narrative</b></p><div style=\"display: inline-block; background-color: #d9e0e7; padding: 6px; margin: 4px; border: 1px solid #8da1b4; border-radius: 5px; line-height: 60%\"><p style=\"margin-bottom: 0px\">Resource \"65bb58dd-b083-4cd3-892f-60fed75967d5\" </p><p style=\"margin-bottom: 0px\">Profile: <a href=\"StructureDefinition-Ingredient-uv-epi.html\">Ingredient (ePI)</a></p></div><p><b>identifier</b>: id: 6OZP39ZG8H (OFFICIAL)</p><p><b>status</b>: active</p><p><b>for</b>: <a href=\"#ManufacturedItemDefinition_7460b712-82ad-4cce-a756-90b0fa04896c\">See above (ManufacturedItemDefinition/7460b712-82ad-4cce-a756-90b0fa04896c)</a></p><p><b>role</b>: Excipient <span style=\"background: LightGoldenRodYellow; margin: 4px; border: 1px solid khaki\"> (#100000072082)</span></p><h3>Manufacturers</h3><table class=\"grid\"><tr><td>-</td><td><b>Manufacturer</b></td></tr><tr><td>*</td><td><a href=\"#Organization_7f257409-3b65-401d-a246-7ae51e298fbb\">See above (Organization/7f257409-3b65-401d-a246-7ae51e298fbb)</a></td></tr></table><blockquote><p><b>substance</b></p></blockquote></div>"
        },
        "identifier": {
          "use": "official",
          "system": "https://gsrs.ncats.nih.gov/ginas/app/beta/",
          "value": "6OZP39ZG8H"
        },
        "status": "active",
        "for": [
          {
            "reference": "ManufacturedItemDefinition/7460b712-82ad-4cce-a756-90b0fa04896c"
          }
        ],
        "role": {
          "coding": [
            {
              "system": "https://spor.ema.europa.eu/rmswi/",
              "code": "100000072082"
            }
          ],
          "text": "Excipient"
        },
        "manufacturer": [
          {
            "manufacturer": {
              "reference": "Organization/7f257409-3b65-401d-a246-7ae51e298fbb"
            }
          }
        ],
        "substance": {
          "code": {
            "concept": {
              "coding": [
                {
                  "system": "https://gsrs.ncats.nih.gov/ginas/app/beta/",
                  "code": "6OZP39ZG8H",
                  "display": "POLYSORBATE 80"
                }
              ]
            }
          }
        }
      }
    },
    {
      "resource": {
        "resourceType": "Ingredient",
        "id": "9df66779-105d-4df6-b920-a3d134cec967",
        "meta": {
          "profile": [
            "http://hl7.eu/fhir/ig/gravitate-health/StructureDefinition/Ingredient-uv-epi"
          ]
        },
        "text": {
          "status": "generated",
          "div": "<div xmlns=\"http://www.w3.org/1999/xhtml\"><p><b>Generated Narrative</b></p><div style=\"display: inline-block; background-color: #d9e0e7; padding: 6px; margin: 4px; border: 1px solid #8da1b4; border-radius: 5px; line-height: 60%\"><p style=\"margin-bottom: 0px\">Resource \"9df66779-105d-4df6-b920-a3d134cec967\" </p><p style=\"margin-bottom: 0px\">Profile: <a href=\"StructureDefinition-Ingredient-uv-epi.html\">Ingredient (ePI)</a></p></div><p><b>identifier</b>: id: 532B59J990 (OFFICIAL)</p><p><b>status</b>: active</p><p><b>for</b>: <a href=\"#ManufacturedItemDefinition_7460b712-82ad-4cce-a756-90b0fa04896c\">See above (ManufacturedItemDefinition/7460b712-82ad-4cce-a756-90b0fa04896c)</a></p><p><b>role</b>: Excipient <span style=\"background: LightGoldenRodYellow; margin: 4px; border: 1px solid khaki\"> (#100000072082)</span></p><h3>Manufacturers</h3><table class=\"grid\"><tr><td>-</td><td><b>Manufacturer</b></td></tr><tr><td>*</td><td><a href=\"#Organization_7f257409-3b65-401d-a246-7ae51e298fbb\">See above (Organization/7f257409-3b65-401d-a246-7ae51e298fbb)</a></td></tr></table><blockquote><p><b>substance</b></p></blockquote></div>"
        },
        "identifier": {
          "use": "official",
          "system": "https://gsrs.ncats.nih.gov/ginas/app/beta/",
          "value": "532B59J990"
        },
        "status": "active",
        "for": [
          {
            "reference": "ManufacturedItemDefinition/7460b712-82ad-4cce-a756-90b0fa04896c"
          }
        ],
        "role": {
          "coding": [
            {
              "system": "https://spor.ema.europa.eu/rmswi/",
              "code": "100000072082"
            }
          ],
          "text": "Excipient"
        },
        "manufacturer": [
          {
            "manufacturer": {
              "reference": "Organization/7f257409-3b65-401d-a246-7ae51e298fbb"
            }
          }
        ],
        "substance": {
          "code": {
            "concept": {
              "coding": [
                {
                  "system": "https://gsrs.ncats.nih.gov/ginas/app/beta/",
                  "code": "532B59J990",
                  "display": "POLYVINYL ALCOHOL, UNSPECIFIED"
                }
              ]
            }
          }
        }
      }
    },
    {
      "resource": {
        "resourceType": "Ingredient",
        "id": "f4d45370-a6f1-4c35-a82a-f64982ab89b3",
        "meta": {
          "profile": [
            "http://hl7.eu/fhir/ig/gravitate-health/StructureDefinition/Ingredient-uv-epi"
          ]
        },
        "text": {
          "status": "generated",
          "div": "<div xmlns=\"http://www.w3.org/1999/xhtml\"><p><b>Generated Narrative</b></p><div style=\"display: inline-block; background-color: #d9e0e7; padding: 6px; margin: 4px; border: 1px solid #8da1b4; border-radius: 5px; line-height: 60%\"><p style=\"margin-bottom: 0px\">Resource \"f4d45370-a6f1-4c35-a82a-f64982ab89b3\" </p><p style=\"margin-bottom: 0px\">Profile: <a href=\"StructureDefinition-Ingredient-uv-epi.html\">Ingredient (ePI)</a></p></div><p><b>identifier</b>: id: C151H8M554 (OFFICIAL)</p><p><b>status</b>: active</p><p><b>for</b>: <a href=\"#ManufacturedItemDefinition_7460b712-82ad-4cce-a756-90b0fa04896c\">See above (ManufacturedItemDefinition/7460b712-82ad-4cce-a756-90b0fa04896c)</a></p><p><b>role</b>: Excipient <span style=\"background: LightGoldenRodYellow; margin: 4px; border: 1px solid khaki\"> (#100000072082)</span></p><h3>Manufacturers</h3><table class=\"grid\"><tr><td>-</td><td><b>Manufacturer</b></td></tr><tr><td>*</td><td><a href=\"#Organization_7f257409-3b65-401d-a246-7ae51e298fbb\">See above (Organization/7f257409-3b65-401d-a246-7ae51e298fbb)</a></td></tr></table><blockquote><p><b>substance</b></p></blockquote></div>"
        },
        "identifier": {
          "use": "official",
          "system": "https://gsrs.ncats.nih.gov/ginas/app/beta/",
          "value": "C151H8M554"
        },
        "status": "active",
        "for": [
          {
            "reference": "ManufacturedItemDefinition/7460b712-82ad-4cce-a756-90b0fa04896c"
          }
        ],
        "role": {
          "coding": [
            {
              "system": "https://spor.ema.europa.eu/rmswi/",
              "code": "100000072082"
            }
          ],
          "text": "Excipient"
        },
        "manufacturer": [
          {
            "manufacturer": {
              "reference": "Organization/7f257409-3b65-401d-a246-7ae51e298fbb"
            }
          }
        ],
        "substance": {
          "code": {
            "concept": {
              "coding": [
                {
                  "system": "https://gsrs.ncats.nih.gov/ginas/app/beta/",
                  "code": "C151H8M554",
                  "display": "SUCROSE"
                }
              ]
            }
          }
        }
      }
    },
    {
      "resource": {
        "resourceType": "Ingredient",
        "id": "86746372-3005-4ba0-a2d0-bcd0d55e56a0",
        "meta": {
          "profile": [
            "http://hl7.eu/fhir/ig/gravitate-health/StructureDefinition/Ingredient-uv-epi"
          ]
        },
        "text": {
          "status": "generated",
          "div": "<div xmlns=\"http://www.w3.org/1999/xhtml\"><p><b>Generated Narrative</b></p><div style=\"display: inline-block; background-color: #d9e0e7; padding: 6px; margin: 4px; border: 1px solid #8da1b4; border-radius: 5px; line-height: 60%\"><p style=\"margin-bottom: 0px\">Resource \"86746372-3005-4ba0-a2d0-bcd0d55e56a0\" </p><p style=\"margin-bottom: 0px\">Profile: <a href=\"StructureDefinition-Ingredient-uv-epi.html\">Ingredient (ePI)</a></p></div><p><b>identifier</b>: id: ETJ7Z6XBU4 (OFFICIAL)</p><p><b>status</b>: active</p><p><b>for</b>: <a href=\"#ManufacturedItemDefinition_7460b712-82ad-4cce-a756-90b0fa04896c\">See above (ManufacturedItemDefinition/7460b712-82ad-4cce-a756-90b0fa04896c)</a></p><p><b>role</b>: Excipient <span style=\"background: LightGoldenRodYellow; margin: 4px; border: 1px solid khaki\"> (#100000072082)</span></p><h3>Manufacturers</h3><table class=\"grid\"><tr><td>-</td><td><b>Manufacturer</b></td></tr><tr><td>*</td><td><a href=\"#Organization_7f257409-3b65-401d-a246-7ae51e298fbb\">See above (Organization/7f257409-3b65-401d-a246-7ae51e298fbb)</a></td></tr></table><blockquote><p><b>substance</b></p></blockquote></div>"
        },
        "identifier": {
          "use": "official",
          "system": "https://gsrs.ncats.nih.gov/ginas/app/beta/",
          "value": "ETJ7Z6XBU4"
        },
        "status": "active",
        "for": [
          {
            "reference": "ManufacturedItemDefinition/7460b712-82ad-4cce-a756-90b0fa04896c"
          }
        ],
        "role": {
          "coding": [
            {
              "system": "https://spor.ema.europa.eu/rmswi/",
              "code": "100000072082"
            }
          ],
          "text": "Excipient"
        },
        "manufacturer": [
          {
            "manufacturer": {
              "reference": "Organization/7f257409-3b65-401d-a246-7ae51e298fbb"
            }
          }
        ],
        "substance": {
          "code": {
            "concept": {
              "coding": [
                {
                  "system": "https://gsrs.ncats.nih.gov/ginas/app/beta/",
                  "code": "ETJ7Z6XBU4",
                  "display": "SILICON DIOXIDE"
                }
              ]
            }
          }
        }
      }
    },
    {
      "resource": {
        "resourceType": "Ingredient",
        "id": "8d6832f1-7d1d-483b-a0fd-879d531681fb",
        "meta": {
          "profile": [
            "http://hl7.eu/fhir/ig/gravitate-health/StructureDefinition/Ingredient-uv-epi"
          ]
        },
        "text": {
          "status": "generated",
          "div": "<div xmlns=\"http://www.w3.org/1999/xhtml\"><p><b>Generated Narrative</b></p><div style=\"display: inline-block; background-color: #d9e0e7; padding: 6px; margin: 4px; border: 1px solid #8da1b4; border-radius: 5px; line-height: 60%\"><p style=\"margin-bottom: 0px\">Resource \"8d6832f1-7d1d-483b-a0fd-879d531681fb\" </p><p style=\"margin-bottom: 0px\">Profile: <a href=\"StructureDefinition-Ingredient-uv-epi.html\">Ingredient (ePI)</a></p></div><p><b>identifier</b>: id: 5856J3G2A2 (OFFICIAL)</p><p><b>status</b>: active</p><p><b>for</b>: <a href=\"#ManufacturedItemDefinition_7460b712-82ad-4cce-a756-90b0fa04896c\">See above (ManufacturedItemDefinition/7460b712-82ad-4cce-a756-90b0fa04896c)</a></p><p><b>role</b>: Excipient <span style=\"background: LightGoldenRodYellow; margin: 4px; border: 1px solid khaki\"> (#100000072082)</span></p><h3>Manufacturers</h3><table class=\"grid\"><tr><td>-</td><td><b>Manufacturer</b></td></tr><tr><td>*</td><td><a href=\"#Organization_7f257409-3b65-401d-a246-7ae51e298fbb\">See above (Organization/7f257409-3b65-401d-a246-7ae51e298fbb)</a></td></tr></table><blockquote><p><b>substance</b></p></blockquote></div>"
        },
        "identifier": {
          "use": "official",
          "system": "https://gsrs.ncats.nih.gov/ginas/app/beta/",
          "value": "5856J3G2A2"
        },
        "status": "active",
        "for": [
          {
            "reference": "ManufacturedItemDefinition/7460b712-82ad-4cce-a756-90b0fa04896c"
          }
        ],
        "role": {
          "coding": [
            {
              "system": "https://spor.ema.europa.eu/rmswi/",
              "code": "100000072082"
            }
          ],
          "text": "Excipient"
        },
        "manufacturer": [
          {
            "manufacturer": {
              "reference": "Organization/7f257409-3b65-401d-a246-7ae51e298fbb"
            }
          }
        ],
        "substance": {
          "code": {
            "concept": {
              "coding": [
                {
                  "system": "https://gsrs.ncats.nih.gov/ginas/app/beta/",
                  "code": "5856J3G2A2",
                  "display": "SODIUM STARCH GLYCOLATE TYPE A POTATO"
                }
              ]
            }
          }
        }
      }
    },
    {
      "resource": {
        "resourceType": "Ingredient",
        "id": "13beb88f-1df3-499d-9c74-4f5925a6f206",
        "meta": {
          "profile": [
            "http://hl7.eu/fhir/ig/gravitate-health/StructureDefinition/Ingredient-uv-epi"
          ]
        },
        "text": {
          "status": "generated",
          "div": "<div xmlns=\"http://www.w3.org/1999/xhtml\"><p><b>Generated Narrative</b></p><div style=\"display: inline-block; background-color: #d9e0e7; padding: 6px; margin: 4px; border: 1px solid #8da1b4; border-radius: 5px; line-height: 60%\"><p style=\"margin-bottom: 0px\">Resource \"13beb88f-1df3-499d-9c74-4f5925a6f206\" </p><p style=\"margin-bottom: 0px\">Profile: <a href=\"StructureDefinition-Ingredient-uv-epi.html\">Ingredient (ePI)</a></p></div><p><b>identifier</b>: id: 5M631N9V0S (OFFICIAL)</p><p><b>status</b>: active</p><p><b>for</b>: <a href=\"#ManufacturedItemDefinition_7460b712-82ad-4cce-a756-90b0fa04896c\">See above (ManufacturedItemDefinition/7460b712-82ad-4cce-a756-90b0fa04896c)</a></p><p><b>role</b>: Excipient <span style=\"background: LightGoldenRodYellow; margin: 4px; border: 1px solid khaki\"> (#100000072082)</span></p><h3>Manufacturers</h3><table class=\"grid\"><tr><td>-</td><td><b>Manufacturer</b></td></tr><tr><td>*</td><td><a href=\"#Organization_7f257409-3b65-401d-a246-7ae51e298fbb\">See above (Organization/7f257409-3b65-401d-a246-7ae51e298fbb)</a></td></tr></table><blockquote><p><b>substance</b></p></blockquote></div>"
        },
        "identifier": {
          "use": "official",
          "system": "https://gsrs.ncats.nih.gov/ginas/app/beta/",
          "value": "5M631N9V0S"
        },
        "status": "active",
        "for": [
          {
            "reference": "ManufacturedItemDefinition/7460b712-82ad-4cce-a756-90b0fa04896c"
          }
        ],
        "role": {
          "coding": [
            {
              "system": "https://spor.ema.europa.eu/rmswi/",
              "code": "100000072082"
            }
          ],
          "text": "Excipient"
        },
        "manufacturer": [
          {
            "manufacturer": {
              "reference": "Organization/7f257409-3b65-401d-a246-7ae51e298fbb"
            }
          }
        ],
        "substance": {
          "code": {
            "concept": {
              "coding": [
                {
                  "system": "https://gsrs.ncats.nih.gov/ginas/app/beta/",
                  "code": "5M631N9V0S",
                  "display": "synthetic wax"
                }
              ]
            }
          }
        }
      }
    },
    {
      "resource": {
        "resourceType": "Ingredient",
        "id": "42a65fd0-6ba9-4b81-9cc2-4c9754d56a95",
        "meta": {
          "profile": [
            "http://hl7.eu/fhir/ig/gravitate-health/StructureDefinition/Ingredient-uv-epi"
          ]
        },
        "text": {
          "status": "generated",
          "div": "<div xmlns=\"http://www.w3.org/1999/xhtml\"><p><b>Generated Narrative</b></p><div style=\"display: inline-block; background-color: #d9e0e7; padding: 6px; margin: 4px; border: 1px solid #8da1b4; border-radius: 5px; line-height: 60%\"><p style=\"margin-bottom: 0px\">Resource \"42a65fd0-6ba9-4b81-9cc2-4c9754d56a95\" </p><p style=\"margin-bottom: 0px\">Profile: <a href=\"StructureDefinition-Ingredient-uv-epi.html\">Ingredient (ePI)</a></p></div><p><b>identifier</b>: id: 7SEV7J4R1U (OFFICIAL)</p><p><b>status</b>: active</p><p><b>for</b>: <a href=\"#ManufacturedItemDefinition_7460b712-82ad-4cce-a756-90b0fa04896c\">See above (ManufacturedItemDefinition/7460b712-82ad-4cce-a756-90b0fa04896c)</a></p><p><b>role</b>: Excipient <span style=\"background: LightGoldenRodYellow; margin: 4px; border: 1px solid khaki\"> (#100000072082)</span></p><h3>Manufacturers</h3><table class=\"grid\"><tr><td>-</td><td><b>Manufacturer</b></td></tr><tr><td>*</td><td><a href=\"#Organization_7f257409-3b65-401d-a246-7ae51e298fbb\">See above (Organization/7f257409-3b65-401d-a246-7ae51e298fbb)</a></td></tr></table><blockquote><p><b>substance</b></p></blockquote></div>"
        },
        "identifier": {
          "use": "official",
          "system": "https://gsrs.ncats.nih.gov/ginas/app/beta/",
          "value": "7SEV7J4R1U"
        },
        "status": "active",
        "for": [
          {
            "reference": "ManufacturedItemDefinition/7460b712-82ad-4cce-a756-90b0fa04896c"
          }
        ],
        "role": {
          "coding": [
            {
              "system": "https://spor.ema.europa.eu/rmswi/",
              "code": "100000072082"
            }
          ],
          "text": "Excipient"
        },
        "manufacturer": [
          {
            "manufacturer": {
              "reference": "Organization/7f257409-3b65-401d-a246-7ae51e298fbb"
            }
          }
        ],
        "substance": {
          "code": {
            "concept": {
              "coding": [
                {
                  "system": "https://gsrs.ncats.nih.gov/ginas/app/beta/",
                  "code": "7SEV7J4R1U",
                  "display": "talc"
                }
              ]
            }
          }
        }
      }
    },
    {
      "resource": {
        "resourceType": "Ingredient",
        "id": "cbb53556-9c1f-4fa7-b2af-2eea988dee2d",
        "meta": {
          "profile": [
            "http://hl7.eu/fhir/ig/gravitate-health/StructureDefinition/Ingredient-uv-epi"
          ]
        },
        "text": {
          "status": "generated",
          "div": "<div xmlns=\"http://www.w3.org/1999/xhtml\"><p><b>Generated Narrative</b></p><div style=\"display: inline-block; background-color: #d9e0e7; padding: 6px; margin: 4px; border: 1px solid #8da1b4; border-radius: 5px; line-height: 60%\"><p style=\"margin-bottom: 0px\">Resource \"cbb53556-9c1f-4fa7-b2af-2eea988dee2d\" </p><p style=\"margin-bottom: 0px\">Profile: <a href=\"StructureDefinition-Ingredient-uv-epi.html\">Ingredient (ePI)</a></p></div><p><b>identifier</b>: id: 15FIX9V2JP (OFFICIAL)</p><p><b>status</b>: active</p><p><b>for</b>: <a href=\"#ManufacturedItemDefinition_7460b712-82ad-4cce-a756-90b0fa04896c\">See above (ManufacturedItemDefinition/7460b712-82ad-4cce-a756-90b0fa04896c)</a></p><p><b>role</b>: Excipient <span style=\"background: LightGoldenRodYellow; margin: 4px; border: 1px solid khaki\"> (#100000072082)</span></p><h3>Manufacturers</h3><table class=\"grid\"><tr><td>-</td><td><b>Manufacturer</b></td></tr><tr><td>*</td><td><a href=\"#Organization_7f257409-3b65-401d-a246-7ae51e298fbb\">See above (Organization/7f257409-3b65-401d-a246-7ae51e298fbb)</a></td></tr></table><blockquote><p><b>substance</b></p></blockquote></div>"
        },
        "identifier": {
          "use": "official",
          "system": "https://gsrs.ncats.nih.gov/ginas/app/beta/",
          "value": "15FIX9V2JP"
        },
        "status": "active",
        "for": [
          {
            "reference": "ManufacturedItemDefinition/7460b712-82ad-4cce-a756-90b0fa04896c"
          }
        ],
        "role": {
          "coding": [
            {
              "system": "https://spor.ema.europa.eu/rmswi/",
              "code": "100000072082"
            }
          ],
          "text": "Excipient"
        },
        "manufacturer": [
          {
            "manufacturer": {
              "reference": "Organization/7f257409-3b65-401d-a246-7ae51e298fbb"
            }
          }
        ],
        "substance": {
          "code": {
            "concept": {
              "coding": [
                {
                  "system": "https://gsrs.ncats.nih.gov/ginas/app/beta/",
                  "code": "15FIX9V2JP",
                  "display": "TITANIUM DIOXIDE "
                }
              ]
            }
          }
        }
      }
    },
    {
      "resource": {
        "resourceType": "SubstanceDefinition",
        "id": "f733a07f-c7fb-43eb-9776-ec0a3e4748da",
        "meta": {
          "profile": [
            "http://hl7.eu/fhir/ig/gravitate-health/StructureDefinition/SubstanceDefinition-uv-epi"
          ]
        },
        "text": {
          "status": "generated",
          "div": "<div xmlns=\"http://www.w3.org/1999/xhtml\"><p><b>Generated Narrative</b></p><div style=\"display: inline-block; background-color: #d9e0e7; padding: 6px; margin: 4px; border: 1px solid #8da1b4; border-radius: 5px; line-height: 60%\"><p style=\"margin-bottom: 0px\">Resource \"f733a07f-c7fb-43eb-9776-ec0a3e4748da\" </p><p style=\"margin-bottom: 0px\">Profile: <a href=\"StructureDefinition-SubstanceDefinition-uv-epi.html\">SubstanceDefinition (ePI)</a></p></div><p><b>identifier</b>: id: NY22HMQ4BX (OFFICIAL)</p><p><b>version</b>: 39</p><p><b>status</b>: Validated (UNII) <span style=\"background: LightGoldenRodYellow; margin: 4px; border: 1px solid khaki\"> (#1)</span></p><p><b>description</b>: White to yellowish white It is a powder of. N ,N -Slightly soluble in dimethylformamide and tetrahydroflan, slightly soluble in methanol and ethanol (95), sparingly soluble in acetonitrile, and practically insoluble in water.</p><p><b>manufacturer</b>: <a href=\"#Organization_7f257409-3b65-401d-a246-7ae51e298fbb\">See above (Organization/7f257409-3b65-401d-a246-7ae51e298fbb)</a></p><h3>MolecularWeights</h3><table class=\"grid\"><tr><td>-</td><td><b>Type</b></td><td><b>Amount</b></td></tr><tr><td>*</td><td>exact <span style=\"background: LightGoldenRodYellow; margin: 4px; border: 1px solid khaki\"> ()</span></td><td>296.4</td></tr></table><h3>Structures</h3><table class=\"grid\"><tr><td>-</td><td><b>MolecularFormula</b></td></tr><tr><td>*</td><td>C20H24O2</td></tr></table><h3>Names</h3><table class=\"grid\"><tr><td>-</td><td><b>Name</b></td><td><b>Type</b></td></tr><tr><td>*</td><td>(+)-6-methyleneandrosta-1,4-diene-3,17-dione</td><td>Chemical Name <span style=\"background: LightGoldenRodYellow; margin: 4px; border: 1px solid khaki\"> (#1)</span></td></tr></table></div>"
        },
        "identifier": [
          {
            "use": "official",
            "system": "https://gsrs.ncats.nih.gov/ginas/app/beta/",
            "value": "NY22HMQ4BX"
          }
        ],
        "version": "39",
        "status": {
          "coding": [
            {
              "system": "https://gsrs.ncats.nih.gov/ginas/app/beta/",
              "code": "1"
            }
          ],
          "text": "Validated (UNII)"
        },
        "description": "White to yellowish white It is a powder of. N ,N -Slightly soluble in dimethylformamide and tetrahydroflan, slightly soluble in methanol and ethanol (95), sparingly soluble in acetonitrile, and practically insoluble in water.",
        "manufacturer": [
          {
            "reference": "Organization/7f257409-3b65-401d-a246-7ae51e298fbb"
          }
        ],
        "molecularWeight": [
          {
            "type": {
              "text": "exact"
            },
            "amount": {
              "value": 296.4
            }
          }
        ],
        "structure": {
          "molecularFormula": "C20H24O2"
        },
        "name": [
          {
            "name": "(+)-6-methyleneandrosta-1,4-diene-3,17-dione",
            "type": {
              "coding": [
                {
                  "system": "https://gsrs.ncats.nih.gov/ginas/app/beta/",
                  "code": "1"
                }
              ],
              "text": "Chemical Name"
            }
          }
        ]
      }
    }
  ]
}