{
  "resourceType": "Bundle",
  "id": "gravitate-maria",
  "identifier": {
    "system": "https://www.gravitatehealth.eu/sid/doc",
    "value": "maria-ips-1"
  },
  "type": "document",
  "timestamp": "2021-09-03T08:38:00+02:00",
  "entry": [
    {
      "fullUrl": "urn:uuid:2fa5b223-ebce-4f39-9c66-5dc014f73572",
      "resource": {
        "resourceType": "Composition",
        "id": "gravitate-maria",
        "text": {
          "status": "generated",
          "div": "<div xmlns=\"http://www.w3.org/1999/xhtml\"><p><b>Generated Narrative</b></p><p><b>status</b>: final</p><p><b>type</b>: <span title=\"Codes: {http://loinc.org 60591-5}\">Patient summary Document</span></p><p><b>date</b>: Jul 10, 2018, 1:22:00 PM</p><p><b>author</b>: <a href=\"#Practitioner_1ece89c5-fda3-4db9-ace6-decbe6c603d8\">Dr. Anna Karlsson. Generated Summary: Anne Karlsson </a></p><p><b>title</b>: Patient Summary (Maria Gravitate)</p><p><b>confidentiality</b>: N</p></div>"
        },
        "status": "final",
        "type": {
          "coding": [
            {
              "system": "http://loinc.org",
              "code": "60591-5",
              "display": "Patient summary Document"
            }
          ]
        },
        "subject": {
          "reference": "urn:uuid:c154158f-6a43-4ab7-8443-e7f4bf915dd5",
          "display": "Maria Gravitate"
        },
        "date": "2018-07-10T15:22:00+02:00",
        "author": [
          {
            "reference": "urn:uuid:1ece89c5-fda3-4db9-ace6-decbe6c603d8",
            "display": "Dr. Anna Karlsson"
          }
        ],
        "title": "Patient Summary (Maria Gravitate)",
        "confidentiality": "N",
        "section": [
          {
            "title": "Allergies and Intolerances",
            "code": {
              "coding": [
                {
                  "system": "http://loinc.org",
                  "code": "48765-2",
                  "display": "Allergies and adverse reactions Document"
                }
              ]
            },
            "text": {
              "status": "generated",
              "div": "<div xmlns=\"http://www.w3.org/1999/xhtml\"><ul><li>Hay fever (pollen)</li></ul></div>"
            },
            "entry": [
              {
                "reference": "urn:uuid:1dff4474-fa08-4f45-8260-dbb23094bf07",
                "display": "Hay fever (pollen)"
              }
            ]
          },
          {
            "title": "Problem List",
            "code": {
              "coding": [
                {
                  "system": "http://loinc.org",
                  "code": "11450-4",
                  "display": "Problem list Reported"
                }
              ]
            },
            "text": {
              "status": "generated",
              "div": "<div xmlns=\"http://www.w3.org/1999/xhtml\"><ul><li>Psoriasis</li><li>Hypertension</li><li>Congestive heart failure</li></ul></div>"
            },
            "entry": [
              {
                "reference": "urn:uuid:bcc79261-142c-48ec-b032-f3f9af49ec58",
                "display": "Psoriasis"
              },
              {
                "reference": "urn:uuid:f06b7cf8-c15c-4288-a0f9-45a1026e5130",
                "display": "Hypertension"
              },
              {
                "reference": "urn:uuid:a4a9d90a-d1b0-4d60-82f0-c52343dc6256",
                "display": "Congestive heart failure"
              }
            ]
          },
          {
            "title": "Medication Summary",
            "code": {
              "coding": [
                {
                  "system": "http://loinc.org",
                  "code": "10160-0",
                  "display": "Hx of Medication use"
                }
              ]
            },
            "text": {
              "status": "generated",
              "div": "<div xmlns=\"http://www.w3.org/1999/xhtml\"><table><thead><tr><th>Brand Name</th><th>MAN</th><th>Active Substance</th><th>Common Name</th><th>ATC</th><th>Strength</th><th>Dose Form</th><th>RoA</th></tr></thead><tbody><tr><td>Skilarence</td><td>EU/1/17/1201/001</td><td>dimethyl fumarate (FO2303MNI2)</td><td>dimethyl fumarate</td><td>L04AX07</td><td>30 mg</td><td>Gastro-resistant tablet</td><td>Oral use</td></tr><tr><td>Karvea</td><td>EMEA/H/C/000142</td><td>irbesartan (J0E2756Z7N)</td><td>irbesartan</td><td>C09DA04</td><td>75 mg</td><td>Tablet</td><td>Oral use</td></tr><tr><td>Boots Decongestant 0.05% w/v Nasal spray</td><td>PL 16028/0049</td><td>oxymetazoline hydrochloride (K89MJ0S5VY)</td><td>oxymetazoline hydrochloride</td><td>R01AA05</td><td>0.05 mg / 1 ml</td><td>Nasal spray, solution</td><td>Nasal use</td></tr></tbody></table></div>"
            },
            "entry": [
              {
                "reference": "urn:uuid:29074ca4-efcb-4ff4-8446-feed2399a899",
                "display": "Dimethyl fumarate 30 mg Gastro-resistant tablet"
              },
              {
                "reference": "urn:uuid:f6cb1218-f81c-4338-80d8-3c10910f78fd",
                "display": "Irbesartan 75 mg Tablet"
              },
              {
                "reference": "urn:uuid:f26084c9-b1c8-46d9-acb2-1d400ade87ba",
                "display": "Oxymetazoline hydrochloride  0.05 mg / 1 ml Spray"
              }
            ]
          }
        ]
      }
    },
    {
      "fullUrl": "urn:uuid:c154158f-6a43-4ab7-8443-e7f4bf915dd5",
      "resource": {
        "resourceType": "Patient",
        "id": "c154158f-6a43-4ab7-8443-e7f4bf915dd5",
        "text": {
          "status": "generated",
          "div": "<div xmlns=\"http://www.w3.org/1999/xhtml\">Maria Gravitate, Female, 75 years old (1946-05-05)</div>"
        },
        "extension": [
          {
            "extension": [
              {
                "url": "code",
                "valueCodeableConcept": {
                  "coding": [
                    {
                      "system": "urn:iso:std:iso:3166",
                      "code": "NO",
                      "display": "Norway"
                    }
                  ]
                }
              }
            ],
            "url": "http://hl7.org/fhir/StructureDefinition/patient-citizenship"
          }
        ],
        "identifier": [
          {
            "system": "https://www.gravitatehealth.eu/sid/doc",
            "value": "maria-1"
          }
        ],
        "active": true,
        "name": [
          {
            "family": "Gravitate",
            "given": [
              "Maria"
            ]
          }
        ],
        "gender": "female",
        "birthDate": "1946-05-05"
      }
    },
    {
      "fullUrl": "urn:uuid:1ece89c5-fda3-4db9-ace6-decbe6c603d8",
      "resource": {
        "resourceType": "Practitioner",
        "id": "1ece89c5-fda3-4db9-ace6-decbe6c603d8",
        "text": {
          "status": "generated",
          "div": "<div xmlns=\"http://www.w3.org/1999/xhtml\">Dr. Anne Karlsson</div>"
        },
        "name": [
          {
            "family": "Karlsson",
            "given": [
              "Anne"
            ],
            "prefix": [
              "Dr."
            ]
          }
        ]
      }
    },
    {
      "fullUrl": "urn:uuid:1dff4474-fa08-4f45-8260-dbb23094bf07",
      "resource": {
        "resourceType": "AllergyIntolerance",
        "id": "1dff4474-fa08-4f45-8260-dbb23094bf07",
        "text": {
          "status": "generated",
          "div": "<div xmlns=\"http://www.w3.org/1999/xhtml\">Hay fever</div>"
        },
        "clinicalStatus": {
          "coding": [
            {
              "system": "http://terminology.hl7.org/CodeSystem/allergyintolerance-clinical",
              "code": "active"
            }
          ]
        },
        "verificationStatus": {
          "coding": [
            {
              "system": "http://terminology.hl7.org/CodeSystem/allergyintolerance-verification",
              "code": "confirmed"
            }
          ]
        },
        "code": {
          "coding": [
            {
              "system": "http://snomed.info/sct",
              "code": "256259004",
              "display": "Pollen"
            }
          ]
        },
        "patient": {
          "reference": "urn:uuid:c154158f-6a43-4ab7-8443-e7f4bf915dd5",
          "display": "Maria Gravitate"
        },
        "reaction": [
          {
            "manifestation": [
              {
                "coding": [
                  {
                    "system": "http://snomed.info/sct",
                    "code": "21719001",
                    "display": "Allergic rhinitis caused by pollen"
                  }
                ],
                "text": "Hay fever"
              }
            ]
          }
        ]
      }
    },
    {
      "fullUrl": "urn:uuid:bcc79261-142c-48ec-b032-f3f9af49ec58",
      "resource": {
        "resourceType": "Condition",
        "id": "bcc79261-142c-48ec-b032-f3f9af49ec58",
        "text": {
          "status": "generated",
          "div": "<div xmlns=\"http://www.w3.org/1999/xhtml\"><p><b>Generated Narrative</b></p><p><b>clinicalStatus</b>: <span title=\"Codes: {http://terminology.hl7.org/CodeSystem/condition-clinical active}\">Active</span></p><p><b>code</b>: <span title=\"Codes: {http://snomed.info/sct 9014002}\">Psoriasis</span></p><p><b>subject</b>: <a href=\"#Patient_c154158f-6a43-4ab7-8443-e7f4bf915dd5\">Maria Gravitate. Generated Summary: id: maria-1; active; Maria Gravitate ; gender: female; birthDate: 1946-05-05</a></p><p><b>asserter</b>: <a href=\"#Practitioner_1ece89c5-fda3-4db9-ace6-decbe6c603d8\">Dr. Anna Karlsson. Generated Summary: Anne Karlsson </a></p></div>"
        },
        "clinicalStatus": {
          "coding": [
            {
              "system": "http://terminology.hl7.org/CodeSystem/condition-clinical",
              "code": "active"
            }
          ]
        },
        "code": {
          "coding": [
            {
              "system": "http://snomed.info/sct",
              "code": "9014002",
              "display": "Psoriasis"
            }
          ]
        },
        "subject": {
          "reference": "urn:uuid:c154158f-6a43-4ab7-8443-e7f4bf915dd5",
          "display": "Maria Gravitate"
        },
        "asserter": {
          "reference": "urn:uuid:1ece89c5-fda3-4db9-ace6-decbe6c603d8",
          "display": "Dr. Anna Karlsson"
        }
      }
    },
    {
      "fullUrl": "urn:uuid:a4a9d90a-d1b0-4d60-82f0-c52343dc6256",
      "resource": {
        "resourceType": "Condition",
        "id": "a4a9d90a-d1b0-4d60-82f0-c52343dc6256",
        "text": {
          "status": "generated",
          "div": "<div xmlns=\"http://www.w3.org/1999/xhtml\">Congestive heart failure (2015)</div>"
        },
        "clinicalStatus": {
          "coding": [
            {
              "system": "http://terminology.hl7.org/CodeSystem/condition-clinical",
              "code": "active"
            }
          ]
        },
        "code": {
          "coding": [
            {
              "system": "http://snomed.info/sct",
              "code": "42343007",
              "display": "Congestive heart failure"
            }
          ],
          "text": "Congestive heart failure"
        },
        "subject": {
          "reference": "urn:uuid:c154158f-6a43-4ab7-8443-e7f4bf915dd5",
          "display": "Maria Gravitate"
        },
        "onsetDateTime": "2015",
        "asserter": {
          "reference": "urn:uuid:1ece89c5-fda3-4db9-ace6-decbe6c603d8",
          "display": "Dr. Anna Karlsson"
        }
      }
    },
    {
      "fullUrl": "urn:uuid:f06b7cf8-c15c-4288-a0f9-45a1026e5130",
      "resource": {
        "resourceType": "Condition",
        "id": "f06b7cf8-c15c-4288-a0f9-45a1026e5130",
        "text": {
          "status": "generated",
          "div": "<div xmlns=\"http://www.w3.org/1999/xhtml\"><p><b>Generated Narrative</b></p><p><b>clinicalStatus</b>: <span title=\"Codes: {http://terminology.hl7.org/CodeSystem/condition-clinical active}\">Active</span></p><p><b>code</b>: <span title=\"Codes: {http://snomed.info/sct 38341003}\">Hypertension</span></p><p><b>subject</b>: <a href=\"#Patient_c154158f-6a43-4ab7-8443-e7f4bf915dd5\">Maria Gravitate. Generated Summary: id: maria-1; active; Maria Gravitate ; gender: female; birthDate: 1946-05-05</a></p><p><b>onset</b>: 1993</p></div>"
        },
        "clinicalStatus": {
          "coding": [
            {
              "system": "http://terminology.hl7.org/CodeSystem/condition-clinical",
              "code": "active"
            }
          ]
        },
        "code": {
          "coding": [
            {
              "system": "http://snomed.info/sct",
              "code": "38341003",
              "display": "HT - Hypertension"
            }
          ],
          "text": "Hypertension"
        },
        "subject": {
          "reference": "urn:uuid:c154158f-6a43-4ab7-8443-e7f4bf915dd5",
          "display": "Maria Gravitate"
        },
        "onsetDateTime": "1993"
      }
    },
    {
      "fullUrl": "urn:uuid:29074ca4-efcb-4ff4-8446-feed2399a899",
      "resource": {
        "resourceType": "MedicationStatement",
        "id": "29074ca4-efcb-4ff4-8446-feed2399a899",
        "text": {
          "status": "generated",
          "div": "<div xmlns=\"http://www.w3.org/1999/xhtml\"><table><thead><tr><th>Brand Name</th><th>MAN</th><th>Active Substance</th><th>Common Name</th><th>ATC</th><th>Strength</th><th>Dose Form</th><th>RoA</th></tr></thead><tbody><tr><td>Skilarence</td><td>EU/1/17/1201/001</td><td>dimethyl fumarate (FO2303MNI2)</td><td>dimethyl fumarate</td><td>L04AX07</td><td>30 mg</td><td>Gastro-resistant tablet</td><td>Oral use</td></tr></tbody></table></div>"
        },
        "status": "active",
        "medicationReference": {
          "reference": "urn:uuid:b50ae644-e0b7-4007-809f-26f493cbe36b",
          "display": "Dimethyl fumarate 30 mg Tablet"
        },
        "subject": {
          "reference": "urn:uuid:c154158f-6a43-4ab7-8443-e7f4bf915dd5",
          "display": "Maria Gravitate"
        },
        "dosage": [
          {
            "route": {
              "coding": [
                {
                  "system": "http://standardterms.edqm.eu",
                  "code": "20053000",
                  "display": "Oral use"
                }
              ]
            }
          }
        ]
      }
    },
    {
      "fullUrl": "urn:uuid:f6cb1218-f81c-4338-80d8-3c10910f78fd",
      "resource": {
        "resourceType": "MedicationStatement",
        "id": "f6cb1218-f81c-4338-80d8-3c10910f78fd",
        "text": {
          "status": "generated",
          "div": "<div xmlns=\"http://www.w3.org/1999/xhtml\"><p><b>Generated Narrative</b></p><p><b>status</b>: active</p><p><b>medication</b>: <a href=\"#Medication_de131e15-ed13-4b31-b38c-3204a84d99c4\">Irbesartan 75 mg Tablet. Generated Summary: <span title=\"Codes: {http://spor.ema.europa.eu/v2/marketing-authorisation-numbers EMEA/H/C/000142}, {https://www.who-umc.org/phpid 0x8DFB446EDB3B8AE508AE493827A704E4}, {http://www.whocc.no/atc C09DA04}\">Karvea</span>; <span title=\"Codes: {http://standardterms.edqm.eu 10219000}\">Tablet</span></a></p><p><b>subject</b>: <a href=\"#Patient_c154158f-6a43-4ab7-8443-e7f4bf915dd5\">Maria Gravitate. Generated Summary: id: maria-1; active; Maria Gravitate ; gender: female; birthDate: 1946-05-05</a></p></div>"
        },
        "status": "active",
        "medicationReference": {
          "reference": "urn:uuid:de131e15-ed13-4b31-b38c-3204a84d99c4",
          "display": "Irbesartan 75 mg Tablet"
        },
        "subject": {
          "reference": "urn:uuid:c154158f-6a43-4ab7-8443-e7f4bf915dd5",
          "display": "Maria Gravitate"
        },
        "dosage": [
          {
            "route": {
              "coding": [
                {
                  "system": "http://standardterms.edqm.eu",
                  "code": "20053000",
                  "display": "Oral use"
                }
              ]
            }
          }
        ]
      }
    },
    {
      "fullUrl": "urn:uuid:f26084c9-b1c8-46d9-acb2-1d400ade87ba",
      "resource": {
        "resourceType": "MedicationStatement",
        "id": "f26084c9-b1c8-46d9-acb2-1d400ade87ba",
        "text": {
          "status": "generated",
          "div": "<div xmlns=\"http://www.w3.org/1999/xhtml\"><p><b>Generated Narrative</b></p><p><b>status</b>: active</p><p><b>medication</b>: <a href=\"#Medication_9ac3356c-4ea4-4814-84c3-235484f2ef19\">Oxymetazoline hydrochloride  0.05 mg / 1 ml Spray. Generated Summary: <span title=\"Codes: {https://www.gravitatehealth.eu/sid/man 16028/0049}, {https://www.who-umc.org/phpid 0xF79CABF272B6A7EEF104DDDA44E82716}, {http://www.whocc.no/atc R01AA05}\">Boots Decongestant 0.05% w/v Nasal spray</span>; <span title=\"Codes: \">Nasal spray, solution</span></a></p><p><b>subject</b>: <a href=\"#Patient_c154158f-6a43-4ab7-8443-e7f4bf915dd5\">Maria Gravitate. Generated Summary: id: maria-1; active; Maria Gravitate ; gender: female; birthDate: 1946-05-05</a></p></div>"
        },
        "status": "active",
        "medicationReference": {
          "reference": "urn:uuid:9ac3356c-4ea4-4814-84c3-235484f2ef19",
          "display": "Oxymetazoline hydrochloride  0.05 mg / 1 ml Spray"
        },
        "subject": {
          "reference": "urn:uuid:c154158f-6a43-4ab7-8443-e7f4bf915dd5",
          "display": "Maria Gravitate"
        },
        "dosage": [
          {
            "route": {
              "coding": [
                {
                  "system": "http://standardterms.edqm.eu",
                  "code": "20049000",
                  "display": "Nasal use"
                }
              ]
            }
          }
        ]
      }
    },
    {
      "fullUrl": "urn:uuid:b50ae644-e0b7-4007-809f-26f493cbe36b",
      "resource": {
        "resourceType": "Medication",
        "id": "b50ae644-e0b7-4007-809f-26f493cbe36b",
        "text": {
          "status": "generated",
          "div": "<div xmlns=\"http://www.w3.org/1999/xhtml\"><p><b>Generated Narrative</b></p><p><b>code</b>: <span title=\"Codes: {http://spor.ema.europa.eu/v2/marketing-authorisation-numbers EU/1/17/1201/001}, {https://www.who-umc.org/phpid 0x9982CA8A825D4561506CE808982E3B9D}, {http://www.whocc.no/atc L04AX07}\">Skilarence</span></p><p><b>form</b>: <span title=\"Codes: {http://standardterms.edqm.eu 10225000}\">Gastro-resistant tablet</span></p><h3>Ingredients</h3><table class=\"grid\"><tr><td>-</td><td><b>Item[x]</b></td><td><b>Strength</b></td></tr><tr><td>*</td><td><span title=\"Codes: {http://fdasis.nlm.nih.gov FO2303MNI2}\">dimethyl fumarate</span></td><td>30 mg/1 Tablet</td></tr></table></div>"
        },
        "code": {
          "coding": [
            {
              "system": "http://spor.ema.europa.eu/v2/marketing-authorisation-numbers",
              "code": "EU/1/17/1201/001",
              "display": "Skilarence"
            },
            {
              "system": "https://www.who-umc.org/phpid",
              "code": "0x9982CA8A825D4561506CE808982E3B9D",
              "display": "dimethyl fumarate, 30 mg/ 1 tablet, Gastro-resistant tablet"
            },
            {
              "system": "http://www.whocc.no/atc",
              "code": "L04AX07",
              "display": "dimethyl fumarate"
            }
          ]
        },
        "form": {
          "coding": [
            {
              "system": "http://standardterms.edqm.eu",
              "code": "10225000",
              "display": "Gastro-resistant tablet"
            }
          ]
        },
        "ingredient": [
          {
            "itemCodeableConcept": {
              "coding": [
                {
                  "system": "http://fdasis.nlm.nih.gov",
                  "code": "FO2303MNI2",
                  "display": "dimethyl fumarate"
                }
              ],
              "text": "dimethyl fumarate"
            },
            "strength": {
              "numerator": {
                "value": 30,
                "unit": "mg",
                "system": "http://unitsofmeasure.org",
                "code": "mg"
              },
              "denominator": {
                "value": 1,
                "unit": "Tablet",
                "system": "http://unitsofmeasure.org",
                "code": "{tablet}"
              }
            }
          }
        ]
      }
    },
    {
      "fullUrl": "urn:uuid:de131e15-ed13-4b31-b38c-3204a84d99c4",
      "resource": {
        "resourceType": "Medication",
        "id": "de131e15-ed13-4b31-b38c-3204a84d99c4",
        "text": {
          "status": "generated",
          "div": "<div xmlns=\"http://www.w3.org/1999/xhtml\"><p><b>Generated Narrative</b></p><p><b>code</b>: <span title=\"Codes: {http://spor.ema.europa.eu/v2/marketing-authorisation-numbers EMEA/H/C/000142}, {https://www.who-umc.org/phpid 0x8DFB446EDB3B8AE508AE493827A704E4}, {http://www.whocc.no/atc C09DA04}\">Karvea</span></p><p><b>form</b>: <span title=\"Codes: {http://standardterms.edqm.eu 10219000}\">Tablet</span></p><h3>Ingredients</h3><table class=\"grid\"><tr><td>-</td><td><b>Item[x]</b></td><td><b>Strength</b></td></tr><tr><td>*</td><td><span title=\"Codes: {http://fdasis.nlm.nih.gov J0E2756Z7N}\">irbesartan</span></td><td>75 mg/1 Tablet</td></tr></table></div>"
        },
        "code": {
          "coding": [
            {
              "system": "http://spor.ema.europa.eu/v2/marketing-authorisation-numbers",
              "code": "EMEA/H/C/000142",
              "display": "Karvea"
            },
            {
              "system": "https://www.who-umc.org/phpid",
              "code": "0x8DFB446EDB3B8AE508AE493827A704E4",
              "display": "Irbesartan, 75 mg/ 1 tablet, Tablet"
            },
            {
              "system": "http://www.whocc.no/atc",
              "code": "C09DA04",
              "display": "irbesartan and diuretics"
            }
          ]
        },
        "form": {
          "coding": [
            {
              "system": "http://standardterms.edqm.eu",
              "code": "10219000",
              "display": "Tablet"
            }
          ]
        },
        "ingredient": [
          {
            "itemCodeableConcept": {
              "coding": [
                {
                  "system": "http://fdasis.nlm.nih.gov",
                  "code": "J0E2756Z7N",
                  "display": "irbesartan"
                }
              ],
              "text": "irbesartan"
            },
            "strength": {
              "numerator": {
                "value": 75,
                "unit": "mg",
                "system": "http://unitsofmeasure.org",
                "code": "mg"
              },
              "denominator": {
                "value": 1,
                "unit": "Tablet",
                "system": "http://unitsofmeasure.org",
                "code": "{tablet}"
              }
            }
          }
        ]
      }
    },
    {
      "fullUrl": "urn:uuid:9ac3356c-4ea4-4814-84c3-235484f2ef19",
      "resource": {
        "resourceType": "Medication",
        "id": "9ac3356c-4ea4-4814-84c3-235484f2ef19",
        "text": {
          "status": "generated",
          "div": "<div xmlns=\"http://www.w3.org/1999/xhtml\"><p><b>Generated Narrative</b></p><p><b>code</b>: <span title=\"Codes: {https://www.gravitatehealth.eu/sid/man 16028/0049}, {https://www.who-umc.org/phpid 0xF79CABF272B6A7EEF104DDDA44E82716}, {http://www.whocc.no/atc R01AA05}\">Boots Decongestant 0.05% w/v Nasal spray</span></p><p><b>form</b>: <span title=\"Codes: \">Nasal spray, solution</span></p><h3>Ingredients</h3><table class=\"grid\"><tr><td>-</td><td><b>Item[x]</b></td><td><b>Strength</b></td></tr><tr><td>*</td><td><span title=\"Codes: {http://fdasis.nlm.nih.gov K89MJ0S5VY}\">oxymetazoline hydrochloride</span></td><td>0.05 mg/1 ml</td></tr></table></div>"
        },
        "code": {
          "coding": [
            {
              "system": "https://www.gravitatehealth.eu/sid/man",
              "code": "16028/0049",
              "display": "Boots Decongestant 0.05% w/v Nasal spray"
            },
            {
              "system": "https://www.who-umc.org/phpid",
              "code": "0xF79CABF272B6A7EEF104DDDA44E82716",
              "display": "Oxymetazoline hydrochloride, 0.5 mg/ 1 ml, Nasal spray, solution"
            },
            {
              "system": "http://www.whocc.no/atc",
              "code": "R01AA05",
              "display": "oxymetazoline"
            }
          ]
        },
        "form": {
          "text": "Nasal spray, solution"
        },
        "ingredient": [
          {
            "itemCodeableConcept": {
              "coding": [
                {
                  "system": "http://fdasis.nlm.nih.gov",
                  "code": "K89MJ0S5VY",
                  "display": "oxymetazoline hydrochloride"
                }
              ],
              "text": "oxymetazoline hydrochloride"
            },
            "strength": {
              "numerator": {
                "value": 0.05,
                "unit": "mg",
                "system": "http://unitsofmeasure.org",
                "code": "mg"
              },
              "denominator": {
                "value": 1,
                "unit": "ml",
                "system": "http://unitsofmeasure.org",
                "code": "ml"
              }
            }
          }
        ]
      }
    }
  ]
}