{
  "resourceType": "Bundle",
  "id": "f237a390-9fda-42e9-a62d-1ba5079be192",
  "identifier": {
    "system": "https://www.gravitatehealth.eu/sid/doc",
    "value": "4291012F1022_4_02"
  },
  "type": "document",
  "timestamp": "2002-08-01T13:28:17Z",
  "entry": [
    {
      "resource": {
        "resourceType": "Composition",
        "id": "363cbf4a-9c4d-442a-af67-b72a1225ca28",
        "meta": {
          "profile": [
            "http://hl7.eu/fhir/ig/gravitate-health/StructureDefinition/Composition-uv-epi"
          ]
        },
        "language": "en",
        "text": {
          "status": "generated",
          "div": "<div xmlns=\"http://www.w3.org/1999/xhtml\" xml:lang=\"en\" lang=\"en\"><p><b>Generated Narrative</b></p><div style=\"display: inline-block; background-color: #d9e0e7; padding: 6px; margin: 4px; border: 1px solid #8da1b4; border-radius: 5px; line-height: 60%\"><p style=\"margin-bottom: 0px\">Resource \"363cbf4a-9c4d-442a-af67-b72a1225ca28\"  (Language \"en\") </p><p style=\"margin-bottom: 0px\">Profile: <a href=\"StructureDefinition-Composition-uv-epi.html\">Composition (ePI)</a></p></div><p><b>status</b>: final</p><p><b>type</b>: Package Leaflet <span style=\"background: LightGoldenRodYellow; margin: 4px; border: 1px solid khaki\"> (#100000155538)</span></p><p><b>date</b>: 2002-08-01 01:28:17+0000</p><p><b>author</b>: <a href=\"#Organization_85c5d81e-9d5a-4a15-8b9d-42bbbe0409c8\">See above (Organization/85c5d81e-9d5a-4a15-8b9d-42bbbe0409c8)</a></p><p><b>title</b>: TEST PURPOSES ONLY - Aromasin (exemestane) Tablets 25 mg tablets</p><p><b>confidentiality</b>: U</p><h3>Attesters</h3><table class=\"grid\"><tr><td>-</td><td><b>Mode</b></td><td><b>Time</b></td></tr><tr><td>*</td><td>Official <span style=\"background: LightGoldenRodYellow; margin: 4px; border: 1px solid khaki\"> (<a href=\"http://build.fhir.org/codesystem-composition-attestation-mode.html\">CompositionAttestationMode</a>#official)</span></td><td>2002-08-01 01:28:17+0000</td></tr></table></div>"
        },
        "status": "final",
        "type": {
          "coding": [
            {
              "system": "https://spor.ema.europa.eu/",
              "code": "100000155538"
            }
          ],
          "text": "Package Leaflet"
        },
        "subject": {
          "reference": "RegulatedAuthorization/56b3b73e-dba0-4447-b8cd-1e24ed637017"
        },
        "date": "2002-08-01T13:28:17Z",
        "author": [
          {
            "reference": "Organization/85c5d81e-9d5a-4a15-8b9d-42bbbe0409c8"
          }
        ],
        "title": "TEST PURPOSES ONLY - Aromasin (exemestane) Tablets 25 mg tablets",
        "confidentiality": "U",
        "attester": [
          {
            "mode": {
              "coding": [
                {
                  "system": "http://hl7.org/fhir/composition-attestation-mode",
                  "code": "official"
                }
              ]
            },
            "time": "2002-08-01T13:28:17Z"
          }
        ],
        "section": [
          {
            "title": "SPL PATIENT PACKAGE INSERT SECTION",
            "code": {
              "coding": [
                {
                  "system": "https://fhir.loinc.org/",
                  "code": "42230-3"
                }
              ],
              "text": "PATIENT PACKAGE INSERT"
            },
            "text": {
              "status": "additional",
              "div": "<div xmlns=\"http://www.w3.org/1999/xhtml\"></div>"
            }
          },
          {
            "title": "What is AROMASIN?",
            "code": {
              "coding": [
                {
                  "system": "https://fhir.loinc.org/",
                  "code": "42230-3-1"
                }
              ],
              "text": "What is AROMASIN?"
            },
            "text": {
              "status": "additional",
              "div": "<div xmlns=\"http://www.w3.org/1999/xhtml\">AROMASIN is used in women who are past menopause for the treatment of:</div>"
            }
          },
          {
            "title": "Before you take AROMASIN, tell your doctor about all your medical conditions, including if you:",
            "code": {
              "coding": [
                {
                  "system": "https://fhir.loinc.org/",
                  "code": "42230-3-2"
                }
              ],
              "text": "Before you take AROMASIN, tell your doctor about all your medical conditions, including if you:"
            },
            "text": {
              "status": "additional",
              "div": "<div xmlns=\"http://www.w3.org/1999/xhtml\">are still having menstrual periods (are not past menopause). AROMASIN is only for women who are past menopause. have weak or brittle bones (osteoporosis)</div>"
            }
          },
          {
            "title": "How should I take AROMASIN?",
            "code": {
              "coding": [
                {
                  "system": "https://fhir.loinc.org/",
                  "code": "42230-3-3"
                }
              ],
              "text": "How should I take AROMASIN?"
            },
            "text": {
              "status": "additional",
              "div": "<div xmlns=\"http://www.w3.org/1999/xhtml\">Take AROMASIN exactly as your doctor tells you. Take AROMASIN 1 time each day after a meal. If you take too much AROMASIN, call your doctor right away or go to nearest hospital emergency room.</div>"
            }
          },
          {
            "title": "What are the possible side effects of AROMASIN?",
            "code": {
              "coding": [
                {
                  "system": "https://fhir.loinc.org/",
                  "code": "42230-3-4"
                }
              ],
              "text": "What are the possible side effects of AROMASIN?"
            },
            "text": {
              "status": "additional",
              "div": "<div xmlns=\"http://www.w3.org/1999/xhtml\">Your doctor will do blood tests to check your vitamin D level before starting treatment with AROMASIN. AROMASIN may cause decreased fertility in males and females. Talk to your doctor if you have concerns about fertility. These are not all the possible side effects of AROMASIN. Call your doctor for medical advice about side effects. You may report side effects to FDA at 1-800-FDA-1088.</div>"
            }
          },
          {
            "title": "How should I store AROMASIN?",
            "code": {
              "coding": [
                {
                  "system": "https://fhir.loinc.org/",
                  "code": "42230-3-5"
                }
              ],
              "text": "How should I store AROMASIN?"
            },
            "text": {
              "status": "additional",
              "div": "<div xmlns=\"http://www.w3.org/1999/xhtml\">Store AROMASIN at room temperature 68째F to 77째F (20째C to 25째C). Keep AROMASIN and all medicines out of the reach of children.</div>"
            }
          },
          {
            "title": "General information about the safe and effective use of AROMASIN.",
            "code": {
              "coding": [
                {
                  "system": "https://fhir.loinc.org/",
                  "code": "42230-3-6"
                }
              ],
              "text": "General information about the safe and effective use of AROMASIN."
            },
            "text": {
              "status": "additional",
              "div": "<div xmlns=\"http://www.w3.org/1999/xhtml\">Medicines are sometimes prescribed for purposes other than those listed in a Patient Information leaflet. Do not use AROMASIN for a condition for which it was not prescribed. Do not give AROMASIN to other people, even if they have the same symptoms you have. It may harm them. You can ask your pharmacist or doctor for information about AROMASIN that is written for health professionals.</div>"
            }
          },
          {
            "title": "What is in AROMASIN?",
            "code": {
              "coding": [
                {
                  "system": "https://fhir.loinc.org/",
                  "code": "42230-3-6"
                }
              ],
              "text": "What is in AROMASIN?"
            },
            "text": {
              "status": "additional",
              "div": "<div xmlns=\"http://www.w3.org/1999/xhtml\">Active ingredient: exemestane Inactive ingredients: mannitol, crospovidone, polysorbate 80, hypromellose, colloidal silicon dioxide, microcrystalline cellulose, sodium starch glycolate, magnesium stearate, simethicone, polyethylene glycol 6000, sucrose, magnesium carbonate, titanium dioxide, methylparaben, and polyvinyl alcohol. Logo LAB-0399-9.0 For more information, go to www.AROMASIN.com or call 1-888-AROMASIN (1-888-276-6274).</div>"
            }
          }
        ]
      }
    },
    {
      "resource": {
        "resourceType": "Organization",
        "id": "85c5d81e-9d5a-4a15-8b9d-42bbbe0409c8",
        "meta": {
          "profile": [
            "http://hl7.eu/fhir/ig/gravitate-health/StructureDefinition/Organization-uv-epi"
          ]
        },
        "text": {
          "status": "generated",
          "div": "<div xmlns=\"http://www.w3.org/1999/xhtml\"><p><b>Generated Narrative</b></p><div style=\"display: inline-block; background-color: #d9e0e7; padding: 6px; margin: 4px; border: 1px solid #8da1b4; border-radius: 5px; line-height: 60%\"><p style=\"margin-bottom: 0px\">Resource \"85c5d81e-9d5a-4a15-8b9d-42bbbe0409c8\" </p><p style=\"margin-bottom: 0px\">Profile: <a href=\"StructureDefinition-Organization-uv-epi.html\">Organization (ePI)</a></p></div><p><b>identifier</b>: id: 672212 (OFFICIAL)</p><p><b>active</b>: true</p><p><b>type</b>: Manufacturer <span style=\"background: LightGoldenRodYellow; margin: 4px; border: 1px solid khaki\"> (#tbd \"Marketing authorisation holder\")</span></p><p><b>name</b>: Pfizer, Inc.</p><p><b>telecom</b>: ph: 0120-664-467(WORK), fax: 03-3379-3053(WORK)</p><p><b>address</b>: 3-22-7 Yoyogi, Shibuya-ku, Tokyo(WORK)</p></div>"
        },
        "identifier": [
          {
            "use": "official",
            "system": "https://pmda-org-id",
            "value": "672212"
          }
        ],
        "active": true,
        "type": [
          {
            "coding": [
              {
                "system": "https://PMDA-org-type.jp/",
                "code": "tbd",
                "display": "Marketing authorisation holder"
              }
            ],
            "text": "Manufacturer"
          }
        ],
        "name": "Pfizer, Inc.",
        "telecom": [
          {
            "system": "phone",
            "value": "0120-664-467",
            "use": "work"
          },
          {
            "system": "fax",
            "value": "03-3379-3053",
            "use": "work"
          }
        ],
        "address": [
          {
            "use": "work",
            "type": "physical",
            "text": "3-22-7 Yoyogi, Shibuya-ku, Tokyo",
            "line": [
              "3-22-7 Yoyogi"
            ],
            "city": "Tokyo",
            "country": "JP"
          }
        ]
      }
    },
    {
      "resource": {
        "resourceType": "RegulatedAuthorization",
        "id": "56b3b73e-dba0-4447-b8cd-1e24ed637017",
        "meta": {
          "profile": [
            "http://hl7.eu/fhir/ig/gravitate-health/StructureDefinition/RegulatedAuthorization-uv-epi"
          ]
        },
        "text": {
          "status": "generated",
          "div": "<div xmlns=\"http://www.w3.org/1999/xhtml\"><p><b>Generated Narrative</b></p><div style=\"display: inline-block; background-color: #d9e0e7; padding: 6px; margin: 4px; border: 1px solid #8da1b4; border-radius: 5px; line-height: 60%\"><p style=\"margin-bottom: 0px\">Resource \"56b3b73e-dba0-4447-b8cd-1e24ed637017\" </p><p style=\"margin-bottom: 0px\">Profile: <a href=\"StructureDefinition-RegulatedAuthorization-uv-epi.html\">RegulatedAuthorization (ePI)</a></p></div><p><b>identifier</b>: id: 21400AMY00186 (OFFICIAL)</p><p><b>subject</b>: <a href=\"#MedicinalProductDefinition_f1b25777-da7a-4a35-98af-ab18d3246d54\">See above (MedicinalProductDefinition/f1b25777-da7a-4a35-98af-ab18d3246d54)</a></p><p><b>type</b>: Marketing Authorisation <span style=\"background: LightGoldenRodYellow; margin: 4px; border: 1px solid khaki\"> (#/#100000072062)</span></p><p><b>region</b>: Japan <span style=\"background: LightGoldenRodYellow; margin: 4px; border: 1px solid khaki\"> (unknown#jp)</span></p><p><b>status</b>: Active <span style=\"background: LightGoldenRodYellow; margin: 4px; border: 1px solid khaki\"> (<a href=\"http://build.fhir.org/codesystem-publication-status.html\">PublicationStatus</a>#active)</span></p><p><b>statusDate</b>: 2002-08-01 01:28:17+0000</p><p><b>holder</b>: <a href=\"#Organization_85c5d81e-9d5a-4a15-8b9d-42bbbe0409c8\">See above (Organization/85c5d81e-9d5a-4a15-8b9d-42bbbe0409c8)</a></p></div>"
        },
        "identifier": [
          {
            "use": "official",
            "system": "https://pmda-approvalandlicenseno/",
            "value": "21400AMY00186"
          }
        ],
        "subject": [
          {
            "reference": "MedicinalProductDefinition/f1b25777-da7a-4a35-98af-ab18d3246d54"
          }
        ],
        "type": {
          "coding": [
            {
              "system": "https://spor.ema.europa.eu/rmswi/",
              "code": "/#100000072062"
            }
          ],
          "text": "Marketing Authorisation"
        },
        "region": [
          {
            "coding": [
              {
                "system": "urn:iso:std:iso:3166",
                "code": "jp"
              }
            ],
            "text": "Japan"
          }
        ],
        "status": {
          "coding": [
            {
              "system": "http://hl7.org/fhir/publication-status",
              "code": "active"
            }
          ],
          "text": "Active"
        },
        "statusDate": "2002-08-01T13:28:17Z",
        "holder": {
          "reference": "Organization/85c5d81e-9d5a-4a15-8b9d-42bbbe0409c8"
        }
      }
    },
    {
      "resource": {
        "resourceType": "MedicinalProductDefinition",
        "id": "f1b25777-da7a-4a35-98af-ab18d3246d54",
        "meta": {
          "profile": [
            "http://hl7.eu/fhir/ig/gravitate-health/StructureDefinition/MedicinalProductDefinition-uv-epi"
          ]
        },
        "text": {
          "status": "generated",
          "div": "<div xmlns=\"http://www.w3.org/1999/xhtml\"><p><b>Generated Narrative</b></p><div style=\"display: inline-block; background-color: #d9e0e7; padding: 6px; margin: 4px; border: 1px solid #8da1b4; border-radius: 5px; line-height: 60%\"><p style=\"margin-bottom: 0px\">Resource \"f1b25777-da7a-4a35-98af-ab18d3246d54\" </p><p style=\"margin-bottom: 0px\">Profile: <a href=\"StructureDefinition-MedicinalProductDefinition-uv-epi.html\">MedicinalProductDefinition (ePI)</a></p></div><p><b>identifier</b>: id: 123456</p><p><b>type</b>: Medicinal Product <span style=\"background: LightGoldenRodYellow; margin: 4px; border: 1px solid khaki\"> (<a href=\"http://build.fhir.org/codesystem-medicinal-product-type.html\">MedicinalProductType</a>#MedicinalProduct)</span></p><p><b>domain</b>: Human use <span style=\"background: LightGoldenRodYellow; margin: 4px; border: 1px solid khaki\"> (<a href=\"http://build.fhir.org/codesystem-medicinal-product-domain.html\">MedicinalProductDomain</a>#Human)</span></p><p><b>status</b>: Active <span style=\"background: LightGoldenRodYellow; margin: 4px; border: 1px solid khaki\"> (<a href=\"http://build.fhir.org/codesystem-publication-status.html\">PublicationStatus</a>#active)</span></p><p><b>legalStatusOfSupply</b>: Medicinal product subject to medical prescription <span style=\"background: LightGoldenRodYellow; margin: 4px; border: 1px solid khaki\"> (<a href=\"CodeSystem-CodeSystemUvEPIRrmswi.html\">Referentials Management Services CodeSystem</a>#100000072084)</span></p><blockquote><p><b>name</b></p><p><b>productName</b>: Aromasin (exemestane) Tablets 25 mg</p><p><b>type</b>: Full name <span style=\"background: LightGoldenRodYellow; margin: 4px; border: 1px solid khaki\"> (<a href=\"CodeSystem-CodeSystemUvEPIRrmswi.html\">Referentials Management Services CodeSystem</a>#220000000001)</span></p><h3>NameParts</h3><table class=\"grid\"><tr><td>-</td><td><b>Part</b></td><td><b>Type</b></td></tr><tr><td>*</td><td>Tablet</td><td>Pharmaceutical dose form part <span style=\"background: LightGoldenRodYellow; margin: 4px; border: 1px solid khaki\"> (<a href=\"CodeSystem-CodeSystemUvEPIRrmswi.html\">Referentials Management Services CodeSystem</a>#220000000005)</span></td></tr></table><h3>CountryLanguages</h3><table class=\"grid\"><tr><td>-</td><td><b>Country</b></td><td><b>Jurisdiction</b></td><td><b>Language</b></td></tr><tr><td>*</td><td>Japan <span style=\"background: LightGoldenRodYellow; margin: 4px; border: 1px solid khaki\"> (unknown#jp)</span></td><td>Japan <span style=\"background: LightGoldenRodYellow; margin: 4px; border: 1px solid khaki\"> (unknown#jp)</span></td><td>Japanese <span style=\"background: LightGoldenRodYellow; margin: 4px; border: 1px solid khaki\"> (unknown#ja)</span></td></tr></table></blockquote></div>"
        },
        "identifier": [
          {
            "system": "https://spor.ema.europa.eu/pmswi",
            "value": "123456"
          }
        ],
        "type": {
          "coding": [
            {
              "system": "http://hl7.org/fhir/medicinal-product-type",
              "code": "MedicinalProduct"
            }
          ],
          "text": "Medicinal Product"
        },
        "domain": {
          "coding": [
            {
              "system": "http://hl7.org/fhir/medicinal-product-domain",
              "code": "Human"
            }
          ],
          "text": "Human use"
        },
        "status": {
          "coding": [
            {
              "system": "http://hl7.org/fhir/publication-status",
              "code": "active",
              "display": "Active"
            }
          ]
        },
        "legalStatusOfSupply": {
          "coding": [
            {
              "system": "https://spor.ema.europa.eu/rmswi",
              "code": "100000072084"
            }
          ],
          "text": "Medicinal product subject to medical prescription"
        },
        "name": [
          {
            "productName": "Aromasin (exemestane) Tablets 25 mg",
            "type": {
              "coding": [
                {
                  "system": "https://spor.ema.europa.eu/rmswi",
                  "code": "220000000001"
                }
              ],
              "text": "Full name"
            },
            "namePart": [
              {
                "part": "Tablet",
                "type": {
                  "coding": [
                    {
                      "system": "https://spor.ema.europa.eu/rmswi",
                      "code": "220000000005"
                    }
                  ],
                  "text": "Pharmaceutical dose form part"
                }
              }
            ],
            "countryLanguage": [
              {
                "country": {
                  "coding": [
                    {
                      "system": "urn:iso:std:iso:3166",
                      "code": "jp"
                    }
                  ],
                  "text": "Japan"
                },
                "jurisdiction": {
                  "coding": [
                    {
                      "system": "urn:iso:std:iso:3166",
                      "code": "jp"
                    }
                  ],
                  "text": "Japan"
                },
                "language": {
                  "coding": [
                    {
                      "system": "urn:iso:std:iso:639-1",
                      "code": "ja"
                    }
                  ],
                  "text": "Japanese"
                }
              }
            ]
          }
        ]
      }
    },
    {
      "resource": {
        "resourceType": "PackagedProductDefinition",
        "id": "39151aef-f61a-40cb-86fc-d0e556fa07ef",
        "meta": {
          "profile": [
            "http://hl7.eu/fhir/ig/gravitate-health/StructureDefinition/PackagedProductDefinition-uv-epi"
          ]
        },
        "text": {
          "status": "generated",
          "div": "<div xmlns=\"http://www.w3.org/1999/xhtml\"><p><b>Generated Narrative</b></p><div style=\"display: inline-block; background-color: #d9e0e7; padding: 6px; margin: 4px; border: 1px solid #8da1b4; border-radius: 5px; line-height: 60%\"><p style=\"margin-bottom: 0px\">Resource \"39151aef-f61a-40cb-86fc-d0e556fa07ef\" </p><p style=\"margin-bottom: 0px\">Profile: <a href=\"StructureDefinition-PackagedProductDefinition-uv-epi.html\">PackagedProductDefinition (ePI)</a></p></div><p><b>identifier</b>: id: 4291012F1022_4_02-001 (OFFICIAL)</p><p><b>name</b>: Aromasin (exemestane) Tablets 25 mg - 28 tablets [14 tablets (PTP) x 2]</p><p><b>type</b>: Chemical Medininal Prodcut <span style=\"background: LightGoldenRodYellow; margin: 4px; border: 1px solid khaki\"> (<a href=\"CodeSystem-CodeSystemUvEPIRrmswi.html\">Referentials Management Services CodeSystem</a>#100000155527)</span></p><p><b>packageFor</b>: <a href=\"#MedicinalProductDefinition_f1b25777-da7a-4a35-98af-ab18d3246d54\">See above (MedicinalProductDefinition/f1b25777-da7a-4a35-98af-ab18d3246d54)</a></p><p><b>status</b>: Active <span style=\"background: LightGoldenRodYellow; margin: 4px; border: 1px solid khaki\"> (<a href=\"http://build.fhir.org/codesystem-publication-status.html\">PublicationStatus</a>#active)</span></p><p><b>statusDate</b>: 2002-08-01 01:28:17+0000</p><p><b>containedItemQuantity</b>: 28 tablet</p><p><b>manufacturer</b>: <a href=\"#Organization_85c5d81e-9d5a-4a15-8b9d-42bbbe0409c8\">See above (Organization/85c5d81e-9d5a-4a15-8b9d-42bbbe0409c8)</a></p><blockquote><p><b>package</b></p><p><b>identifier</b>: id: 123456</p><p><b>type</b>: Blister <span style=\"background: LightGoldenRodYellow; margin: 4px; border: 1px solid khaki\"> (<a href=\"CodeSystem-CodeSystemUvEPIRrmswi.html\">Referentials Management Services CodeSystem</a>#30007000)</span></p><p><b>quantity</b>: 1</p><p><b>material</b>: PolyVinyl Chloride <span style=\"background: LightGoldenRodYellow; margin: 4px; border: 1px solid khaki\"> (<a href=\"CodeSystem-CodeSystemUvEPIRrmswi.html\">Referentials Management Services CodeSystem</a>#200000003222)</span></p><blockquote><p><b>containedItem</b></p></blockquote></blockquote></div>"
        },
        "identifier": [
          {
            "use": "official",
            "system": "https://spor.ema.europa.eu/pmswi",
            "value": "4291012F1022_4_02-001"
          }
        ],
        "name": "Aromasin (exemestane) Tablets 25 mg - 28 tablets [14 tablets (PTP) x 2]",
        "type": {
          "coding": [
            {
              "system": "https://spor.ema.europa.eu/rmswi",
              "code": "100000155527"
            }
          ],
          "text": "Chemical Medininal Prodcut"
        },
        "packageFor": [
          {
            "reference": "MedicinalProductDefinition/f1b25777-da7a-4a35-98af-ab18d3246d54"
          }
        ],
        "status": {
          "coding": [
            {
              "system": "http://hl7.org/fhir/publication-status",
              "code": "active",
              "display": "Active"
            }
          ]
        },
        "statusDate": "2002-08-01T13:28:17Z",
        "containedItemQuantity": [
          {
            "value": 28,
            "unit": "tablet"
          }
        ],
        "manufacturer": [
          {
            "reference": "Organization/85c5d81e-9d5a-4a15-8b9d-42bbbe0409c8"
          }
        ],
        "package": {
          "identifier": [
            {
              "system": "https://spor.ema.europa.eu/pmswi",
              "value": "123456"
            }
          ],
          "type": {
            "coding": [
              {
                "system": "https://spor.ema.europa.eu/rmswi",
                "code": "30007000",
                "display": "Blister"
              }
            ]
          },
          "quantity": 1,
          "material": [
            {
              "coding": [
                {
                  "system": "https://spor.ema.europa.eu/rmswi",
                  "code": "200000003222",
                  "display": "PolyVinyl Chloride"
                }
              ]
            }
          ],
          "containedItem": [
            {
              "item": {
                "reference": {
                  "reference": "ManufacturedItemDefinition/23fed712-2d60-461d-83a6-5fb939b2a939"
                }
              }
            }
          ]
        }
      }
    },
    {
      "resource": {
        "resourceType": "PackagedProductDefinition",
        "id": "99d32917-3fd8-434b-bd1f-195a462326c1",
        "meta": {
          "profile": [
            "http://hl7.eu/fhir/ig/gravitate-health/StructureDefinition/PackagedProductDefinition-uv-epi"
          ]
        },
        "text": {
          "status": "generated",
          "div": "<div xmlns=\"http://www.w3.org/1999/xhtml\"><p><b>Generated Narrative</b></p><div style=\"display: inline-block; background-color: #d9e0e7; padding: 6px; margin: 4px; border: 1px solid #8da1b4; border-radius: 5px; line-height: 60%\"><p style=\"margin-bottom: 0px\">Resource \"99d32917-3fd8-434b-bd1f-195a462326c1\" </p><p style=\"margin-bottom: 0px\">Profile: <a href=\"StructureDefinition-PackagedProductDefinition-uv-epi.html\">PackagedProductDefinition (ePI)</a></p></div><p><b>identifier</b>: id: 4291012F1022_4_02-002 (OFFICIAL)</p><p><b>name</b>: Aromasin (exemestane) Tablets 25 mg - 140 tablets [14 tablets (PTP) x 10]</p><p><b>type</b>: Chemical Medininal Prodcut <span style=\"background: LightGoldenRodYellow; margin: 4px; border: 1px solid khaki\"> (<a href=\"CodeSystem-CodeSystemUvEPIRrmswi.html\">Referentials Management Services CodeSystem</a>#100000155527)</span></p><p><b>packageFor</b>: <a href=\"#MedicinalProductDefinition_f1b25777-da7a-4a35-98af-ab18d3246d54\">See above (MedicinalProductDefinition/f1b25777-da7a-4a35-98af-ab18d3246d54)</a></p><p><b>status</b>: Active <span style=\"background: LightGoldenRodYellow; margin: 4px; border: 1px solid khaki\"> (<a href=\"http://build.fhir.org/codesystem-publication-status.html\">PublicationStatus</a>#active)</span></p><p><b>statusDate</b>: 2002-08-01 01:28:17+0000</p><p><b>containedItemQuantity</b>: 140 tablet</p><p><b>manufacturer</b>: <a href=\"#Organization_85c5d81e-9d5a-4a15-8b9d-42bbbe0409c8\">See above (Organization/85c5d81e-9d5a-4a15-8b9d-42bbbe0409c8)</a></p><blockquote><p><b>package</b></p><p><b>identifier</b>: id: 78910</p><p><b>type</b>: Blister <span style=\"background: LightGoldenRodYellow; margin: 4px; border: 1px solid khaki\"> (<a href=\"CodeSystem-CodeSystemUvEPIRrmswi.html\">Referentials Management Services CodeSystem</a>#30007000)</span></p><p><b>quantity</b>: 1</p><p><b>material</b>: PolyVinyl Chloride <span style=\"background: LightGoldenRodYellow; margin: 4px; border: 1px solid khaki\"> (<a href=\"CodeSystem-CodeSystemUvEPIRrmswi.html\">Referentials Management Services CodeSystem</a>#200000003222)</span></p><blockquote><p><b>containedItem</b></p></blockquote></blockquote></div>"
        },
        "identifier": [
          {
            "use": "official",
            "system": "https://pmda-packinsertno/",
            "value": "4291012F1022_4_02-002"
          }
        ],
        "name": "Aromasin (exemestane) Tablets 25 mg - 140 tablets [14 tablets (PTP) x 10]",
        "type": {
          "coding": [
            {
              "system": "https://spor.ema.europa.eu/rmswi",
              "code": "100000155527"
            }
          ],
          "text": "Chemical Medininal Prodcut"
        },
        "packageFor": [
          {
            "reference": "MedicinalProductDefinition/f1b25777-da7a-4a35-98af-ab18d3246d54"
          }
        ],
        "status": {
          "coding": [
            {
              "system": "http://hl7.org/fhir/publication-status",
              "code": "active",
              "display": "Active"
            }
          ]
        },
        "statusDate": "2002-08-01T13:28:17Z",
        "containedItemQuantity": [
          {
            "value": 140,
            "unit": "tablet"
          }
        ],
        "manufacturer": [
          {
            "reference": "Organization/85c5d81e-9d5a-4a15-8b9d-42bbbe0409c8"
          }
        ],
        "package": {
          "identifier": [
            {
              "system": "https://spor.ema.europa.eu/pmswi",
              "value": "78910"
            }
          ],
          "type": {
            "coding": [
              {
                "system": "https://spor.ema.europa.eu/rmswi",
                "code": "30007000",
                "display": "Blister"
              }
            ]
          },
          "quantity": 1,
          "material": [
            {
              "coding": [
                {
                  "system": "https://spor.ema.europa.eu/rmswi",
                  "code": "200000003222",
                  "display": "PolyVinyl Chloride"
                }
              ]
            }
          ],
          "containedItem": [
            {
              "item": {
                "reference": {
                  "reference": "ManufacturedItemDefinition/23fed712-2d60-461d-83a6-5fb939b2a939"
                }
              }
            }
          ]
        }
      }
    },
    {
      "resource": {
        "resourceType": "AdministrableProductDefinition",
        "id": "8cf05f7c-481d-4bd6-9a7c-9ca3275601c3",
        "meta": {
          "profile": [
            "http://hl7.eu/fhir/ig/gravitate-health/StructureDefinition/AdministrableProductDefinition-uv-epi"
          ]
        },
        "text": {
          "status": "generated",
          "div": "<div xmlns=\"http://www.w3.org/1999/xhtml\"><p><b>Generated Narrative</b></p><div style=\"display: inline-block; background-color: #d9e0e7; padding: 6px; margin: 4px; border: 1px solid #8da1b4; border-radius: 5px; line-height: 60%\"><p style=\"margin-bottom: 0px\">Resource \"8cf05f7c-481d-4bd6-9a7c-9ca3275601c3\" </p><p style=\"margin-bottom: 0px\">Profile: <a href=\"StructureDefinition-AdministrableProductDefinition-uv-epi.html\">AdministrableProductDefinition (ePI)</a></p></div><p><b>identifier</b>: id: abc123</p><p><b>status</b>: active</p><p><b>formOf</b>: <a href=\"#MedicinalProductDefinition_f1b25777-da7a-4a35-98af-ab18d3246d54\">See above (MedicinalProductDefinition/f1b25777-da7a-4a35-98af-ab18d3246d54)</a></p><p><b>administrableDoseForm</b>: Tablet <span style=\"background: LightGoldenRodYellow; margin: 4px; border: 1px solid khaki\"> (#10219000)</span></p><p><b>unitOfPresentation</b>: Tablet <span style=\"background: LightGoldenRodYellow; margin: 4px; border: 1px solid khaki\"> (#15054000)</span></p><p><b>producedFrom</b>: <a href=\"#ManufacturedItemDefinition_23fed712-2d60-461d-83a6-5fb939b2a939\">See above (ManufacturedItemDefinition/23fed712-2d60-461d-83a6-5fb939b2a939)</a></p><blockquote><p><b>routeOfAdministration</b></p><p><b>code</b>: Oral use <span style=\"background: LightGoldenRodYellow; margin: 4px; border: 1px solid khaki\"> (#20053000)</span></p><h3>TargetSpecies</h3><table class=\"grid\"><tr><td>-</td><td><b>Code</b></td></tr><tr><td>*</td><td>Human <span style=\"background: LightGoldenRodYellow; margin: 4px; border: 1px solid khaki\"> (#/#100000109093)</span></td></tr></table></blockquote></div>"
        },
        "identifier": [
          {
            "system": "https://www.who-umc.org/phpid",
            "value": "abc123"
          }
        ],
        "status": "active",
        "formOf": [
          {
            "reference": "MedicinalProductDefinition/f1b25777-da7a-4a35-98af-ab18d3246d54"
          }
        ],
        "administrableDoseForm": {
          "coding": [
            {
              "system": "https://standardterms.edqm.eu/browse/get_concepts_by/SOM/SOM/",
              "code": "10219000"
            }
          ],
          "text": "Tablet"
        },
        "unitOfPresentation": {
          "coding": [
            {
              "system": "https://standardterms.edqm.eu/browse/get_concepts/UOP/",
              "code": "15054000"
            }
          ],
          "text": "Tablet"
        },
        "producedFrom": [
          {
            "reference": "ManufacturedItemDefinition/23fed712-2d60-461d-83a6-5fb939b2a939"
          }
        ],
        "routeOfAdministration": [
          {
            "code": {
              "coding": [
                {
                  "system": "https://standardterms.edqm.eu/browse/get_concepts/ROA/",
                  "code": "20053000"
                }
              ],
              "text": "Oral use"
            },
            "targetSpecies": [
              {
                "code": {
                  "coding": [
                    {
                      "system": "https://spor.ema.europa.eu/rmswi/",
                      "code": "/#100000109093"
                    }
                  ],
                  "text": "Human"
                }
              }
            ]
          }
        ]
      }
    },
    {
      "resource": {
        "resourceType": "ManufacturedItemDefinition",
        "id": "23fed712-2d60-461d-83a6-5fb939b2a939",
        "meta": {
          "profile": [
            "http://hl7.eu/fhir/ig/gravitate-health/StructureDefinition/ManufacturedItemDefinition-uv-epi"
          ]
        },
        "text": {
          "status": "generated",
          "div": "<div xmlns=\"http://www.w3.org/1999/xhtml\"><p><b>Generated Narrative</b></p><div style=\"display: inline-block; background-color: #d9e0e7; padding: 6px; margin: 4px; border: 1px solid #8da1b4; border-radius: 5px; line-height: 60%\"><p style=\"margin-bottom: 0px\">Resource \"23fed712-2d60-461d-83a6-5fb939b2a939\" </p><p style=\"margin-bottom: 0px\">Profile: <a href=\"StructureDefinition-ManufacturedItemDefinition-uv-epi.html\">ManufacturedItemDefinition (ePI)</a></p></div><p><b>identifier</b>: id: 874291 (OFFICIAL)</p><p><b>status</b>: active</p><p><b>manufacturedDoseForm</b>: Tablet <span style=\"background: LightGoldenRodYellow; margin: 4px; border: 1px solid khaki\"> (#10219000)</span></p><p><b>unitOfPresentation</b>: Tablet <span style=\"background: LightGoldenRodYellow; margin: 4px; border: 1px solid khaki\"> (#15054000)</span></p><p><b>manufacturer</b>: <a href=\"#Organization_85c5d81e-9d5a-4a15-8b9d-42bbbe0409c8\">See above (Organization/85c5d81e-9d5a-4a15-8b9d-42bbbe0409c8)</a></p></div>"
        },
        "identifier": [
          {
            "use": "official",
            "system": "https://pmda-sccj",
            "value": "874291"
          }
        ],
        "status": "active",
        "manufacturedDoseForm": {
          "coding": [
            {
              "system": "https://standardterms.edqm.eu/browse/get_concepts_by/SOM/SOM/",
              "code": "10219000"
            }
          ],
          "text": "Tablet"
        },
        "unitOfPresentation": {
          "coding": [
            {
              "system": "https://standardterms.edqm.eu/browse/get_concepts/UOP/",
              "code": "15054000"
            }
          ],
          "text": "Tablet"
        },
        "manufacturer": [
          {
            "reference": "Organization/85c5d81e-9d5a-4a15-8b9d-42bbbe0409c8"
          }
        ]
      }
    },
    {
      "resource": {
        "resourceType": "Ingredient",
        "id": "5a574ff2-f3e6-4aaa-8d3c-27e6ab343533",
        "meta": {
          "profile": [
            "http://hl7.eu/fhir/ig/gravitate-health/StructureDefinition/Ingredient-uv-epi"
          ]
        },
        "text": {
          "status": "generated",
          "div": "<div xmlns=\"http://www.w3.org/1999/xhtml\"><p><b>Generated Narrative</b></p><div style=\"display: inline-block; background-color: #d9e0e7; padding: 6px; margin: 4px; border: 1px solid #8da1b4; border-radius: 5px; line-height: 60%\"><p style=\"margin-bottom: 0px\">Resource \"5a574ff2-f3e6-4aaa-8d3c-27e6ab343533\" </p><p style=\"margin-bottom: 0px\">Profile: <a href=\"StructureDefinition-Ingredient-uv-epi.html\">Ingredient (ePI)</a></p></div><p><b>identifier</b>: id: NY22HMQ4BX (OFFICIAL)</p><p><b>status</b>: active</p><p><b>for</b>: <a href=\"#ManufacturedItemDefinition_23fed712-2d60-461d-83a6-5fb939b2a939\">See above (ManufacturedItemDefinition/23fed712-2d60-461d-83a6-5fb939b2a939)</a></p><p><b>role</b>: active <span style=\"background: LightGoldenRodYellow; margin: 4px; border: 1px solid khaki\"> (#00000072072)</span></p><h3>Manufacturers</h3><table class=\"grid\"><tr><td>-</td><td><b>Manufacturer</b></td></tr><tr><td>*</td><td><a href=\"#Organization_85c5d81e-9d5a-4a15-8b9d-42bbbe0409c8\">See above (Organization/85c5d81e-9d5a-4a15-8b9d-42bbbe0409c8)</a></td></tr></table><blockquote><p><b>substance</b></p><h3>Strengths</h3><table class=\"grid\"><tr><td>-</td><td><b>Presentation[x]</b></td><td><b>Basis</b></td></tr><tr><td>*</td><td>25 mg</td><td>active ingredient - basis of strength <span style=\"background: LightGoldenRodYellow; margin: 4px; border: 1px solid khaki\"> (v3-RoleClassIngredientEntity#ACTIB)</span></td></tr></table></blockquote></div>"
        },
        "identifier": {
          "use": "official",
          "system": "https://gsrs.ncats.nih.gov/ginas/app/beta/",
          "value": "NY22HMQ4BX"
        },
        "status": "active",
        "for": [
          {
            "reference": "ManufacturedItemDefinition/23fed712-2d60-461d-83a6-5fb939b2a939"
          }
        ],
        "role": {
          "coding": [
            {
              "system": "https://spor.ema.europa.eu/rmswi/",
              "code": "00000072072"
            }
          ],
          "text": "active"
        },
        "manufacturer": [
          {
            "manufacturer": {
              "reference": "Organization/85c5d81e-9d5a-4a15-8b9d-42bbbe0409c8"
            }
          }
        ],
        "substance": {
          "code": {
            "concept": {
              "coding": [
                {
                  "system": "https://gsrs.ncats.nih.gov/ginas/app/beta/",
                  "code": "NY22HMQ4BX",
                  "display": "exemestane"
                }
              ]
            }
          },
          "strength": [
            {
              "presentationQuantity": {
                "value": 25,
                "unit": "mg"
              },
              "basis": {
                "coding": [
                  {
                    "system": "http://terminology.hl7.org/ValueSet/v3-RoleClassIngredientEntity",
                    "code": "ACTIB"
                  }
                ],
                "text": "active ingredient - basis of strength"
              }
            }
          ]
        }
      }
    },
    {
      "resource": {
        "resourceType": "Ingredient",
        "id": "f35c1543-e4e2-4215-b91c-f092b1fb9655",
        "meta": {
          "profile": [
            "http://hl7.eu/fhir/ig/gravitate-health/StructureDefinition/Ingredient-uv-epi"
          ]
        },
        "text": {
          "status": "generated",
          "div": "<div xmlns=\"http://www.w3.org/1999/xhtml\"><p><b>Generated Narrative</b></p><div style=\"display: inline-block; background-color: #d9e0e7; padding: 6px; margin: 4px; border: 1px solid #8da1b4; border-radius: 5px; line-height: 60%\"><p style=\"margin-bottom: 0px\">Resource \"f35c1543-e4e2-4215-b91c-f092b1fb9655\" </p><p style=\"margin-bottom: 0px\">Profile: <a href=\"StructureDefinition-Ingredient-uv-epi.html\">Ingredient (ePI)</a></p></div><p><b>identifier</b>: id: R12CBM0EIZ (OFFICIAL)</p><p><b>status</b>: active</p><p><b>for</b>: <a href=\"#ManufacturedItemDefinition_23fed712-2d60-461d-83a6-5fb939b2a939\">See above (ManufacturedItemDefinition/23fed712-2d60-461d-83a6-5fb939b2a939)</a></p><p><b>role</b>: Excipient <span style=\"background: LightGoldenRodYellow; margin: 4px; border: 1px solid khaki\"> (#100000072082)</span></p><h3>Manufacturers</h3><table class=\"grid\"><tr><td>-</td><td><b>Manufacturer</b></td></tr><tr><td>*</td><td><a href=\"#Organization_85c5d81e-9d5a-4a15-8b9d-42bbbe0409c8\">See above (Organization/85c5d81e-9d5a-4a15-8b9d-42bbbe0409c8)</a></td></tr></table><blockquote><p><b>substance</b></p></blockquote></div>"
        },
        "identifier": {
          "use": "official",
          "system": "https://gsrs.ncats.nih.gov/ginas/app/beta/",
          "value": "R12CBM0EIZ"
        },
        "status": "active",
        "for": [
          {
            "reference": "ManufacturedItemDefinition/23fed712-2d60-461d-83a6-5fb939b2a939"
          }
        ],
        "role": {
          "coding": [
            {
              "system": "https://spor.ema.europa.eu/rmswi/",
              "code": "100000072082"
            }
          ],
          "text": "Excipient"
        },
        "manufacturer": [
          {
            "manufacturer": {
              "reference": "Organization/85c5d81e-9d5a-4a15-8b9d-42bbbe0409c8"
            }
          }
        ],
        "substance": {
          "code": {
            "concept": {
              "coding": [
                {
                  "system": "https://gsrs.ncats.nih.gov/ginas/app/beta/",
                  "code": "R12CBM0EIZ",
                  "display": "Carnauba wax"
                }
              ]
            }
          }
        }
      }
    },
    {
      "resource": {
        "resourceType": "Ingredient",
        "id": "32e98fc8-b8fb-4bd9-a4d3-2ce97c151d61",
        "meta": {
          "profile": [
            "http://hl7.eu/fhir/ig/gravitate-health/StructureDefinition/Ingredient-uv-epi"
          ]
        },
        "text": {
          "status": "generated",
          "div": "<div xmlns=\"http://www.w3.org/1999/xhtml\"><p><b>Generated Narrative</b></p><div style=\"display: inline-block; background-color: #d9e0e7; padding: 6px; margin: 4px; border: 1px solid #8da1b4; border-radius: 5px; line-height: 60%\"><p style=\"margin-bottom: 0px\">Resource \"32e98fc8-b8fb-4bd9-a4d3-2ce97c151d61\" </p><p style=\"margin-bottom: 0px\">Profile: <a href=\"StructureDefinition-Ingredient-uv-epi.html\">Ingredient (ePI)</a></p></div><p><b>identifier</b>: id: OP1R32D61U (OFFICIAL)</p><p><b>status</b>: active</p><p><b>for</b>: <a href=\"#ManufacturedItemDefinition_23fed712-2d60-461d-83a6-5fb939b2a939\">See above (ManufacturedItemDefinition/23fed712-2d60-461d-83a6-5fb939b2a939)</a></p><p><b>role</b>: Excipient <span style=\"background: LightGoldenRodYellow; margin: 4px; border: 1px solid khaki\"> (#100000072082)</span></p><h3>Manufacturers</h3><table class=\"grid\"><tr><td>-</td><td><b>Manufacturer</b></td></tr><tr><td>*</td><td><a href=\"#Organization_85c5d81e-9d5a-4a15-8b9d-42bbbe0409c8\">See above (Organization/85c5d81e-9d5a-4a15-8b9d-42bbbe0409c8)</a></td></tr></table><blockquote><p><b>substance</b></p></blockquote></div>"
        },
        "identifier": {
          "use": "official",
          "system": "https://gsrs.ncats.nih.gov/ginas/app/beta/",
          "value": "OP1R32D61U"
        },
        "status": "active",
        "for": [
          {
            "reference": "ManufacturedItemDefinition/23fed712-2d60-461d-83a6-5fb939b2a939"
          }
        ],
        "role": {
          "coding": [
            {
              "system": "https://spor.ema.europa.eu/rmswi/",
              "code": "100000072082"
            }
          ],
          "text": "Excipient"
        },
        "manufacturer": [
          {
            "manufacturer": {
              "reference": "Organization/85c5d81e-9d5a-4a15-8b9d-42bbbe0409c8"
            }
          }
        ],
        "substance": {
          "code": {
            "concept": {
              "coding": [
                {
                  "system": "https://gsrs.ncats.nih.gov/ginas/app/beta/",
                  "code": "OP1R32D61U",
                  "display": "crystalline cellulose"
                }
              ]
            }
          }
        }
      }
    },
    {
      "resource": {
        "resourceType": "Ingredient",
        "id": "7b23dea1-ce14-4c13-8004-f297bb75eda0",
        "meta": {
          "profile": [
            "http://hl7.eu/fhir/ig/gravitate-health/StructureDefinition/Ingredient-uv-epi"
          ]
        },
        "text": {
          "status": "generated",
          "div": "<div xmlns=\"http://www.w3.org/1999/xhtml\"><p><b>Generated Narrative</b></p><div style=\"display: inline-block; background-color: #d9e0e7; padding: 6px; margin: 4px; border: 1px solid #8da1b4; border-radius: 5px; line-height: 60%\"><p style=\"margin-bottom: 0px\">Resource \"7b23dea1-ce14-4c13-8004-f297bb75eda0\" </p><p style=\"margin-bottom: 0px\">Profile: <a href=\"StructureDefinition-Ingredient-uv-epi.html\">Ingredient (ePI)</a></p></div><p><b>identifier</b>: id: 3OWL53L36A (OFFICIAL)</p><p><b>status</b>: active</p><p><b>for</b>: <a href=\"#ManufacturedItemDefinition_23fed712-2d60-461d-83a6-5fb939b2a939\">See above (ManufacturedItemDefinition/23fed712-2d60-461d-83a6-5fb939b2a939)</a></p><p><b>role</b>: Excipient <span style=\"background: LightGoldenRodYellow; margin: 4px; border: 1px solid khaki\"> (#100000072082)</span></p><h3>Manufacturers</h3><table class=\"grid\"><tr><td>-</td><td><b>Manufacturer</b></td></tr><tr><td>*</td><td><a href=\"#Organization_85c5d81e-9d5a-4a15-8b9d-42bbbe0409c8\">See above (Organization/85c5d81e-9d5a-4a15-8b9d-42bbbe0409c8)</a></td></tr></table><blockquote><p><b>substance</b></p></blockquote></div>"
        },
        "identifier": {
          "use": "official",
          "system": "https://gsrs.ncats.nih.gov/ginas/app/beta/",
          "value": "3OWL53L36A"
        },
        "status": "active",
        "for": [
          {
            "reference": "ManufacturedItemDefinition/23fed712-2d60-461d-83a6-5fb939b2a939"
          }
        ],
        "role": {
          "coding": [
            {
              "system": "https://spor.ema.europa.eu/rmswi/",
              "code": "100000072082"
            }
          ],
          "text": "Excipient"
        },
        "manufacturer": [
          {
            "manufacturer": {
              "reference": "Organization/85c5d81e-9d5a-4a15-8b9d-42bbbe0409c8"
            }
          }
        ],
        "substance": {
          "code": {
            "concept": {
              "coding": [
                {
                  "system": "https://gsrs.ncats.nih.gov/ginas/app/beta/",
                  "code": "3OWL53L36A",
                  "display": "MANNITOL"
                }
              ]
            }
          }
        }
      }
    },
    {
      "resource": {
        "resourceType": "Ingredient",
        "id": "cc5753cd-e648-47d2-a135-503cd8a3e1da",
        "meta": {
          "profile": [
            "http://hl7.eu/fhir/ig/gravitate-health/StructureDefinition/Ingredient-uv-epi"
          ]
        },
        "text": {
          "status": "generated",
          "div": "<div xmlns=\"http://www.w3.org/1999/xhtml\"><p><b>Generated Narrative</b></p><div style=\"display: inline-block; background-color: #d9e0e7; padding: 6px; margin: 4px; border: 1px solid #8da1b4; border-radius: 5px; line-height: 60%\"><p style=\"margin-bottom: 0px\">Resource \"cc5753cd-e648-47d2-a135-503cd8a3e1da\" </p><p style=\"margin-bottom: 0px\">Profile: <a href=\"StructureDefinition-Ingredient-uv-epi.html\">Ingredient (ePI)</a></p></div><p><b>identifier</b>: id: 3NXW29V3WO (OFFICIAL)</p><p><b>status</b>: active</p><p><b>for</b>: <a href=\"#ManufacturedItemDefinition_23fed712-2d60-461d-83a6-5fb939b2a939\">See above (ManufacturedItemDefinition/23fed712-2d60-461d-83a6-5fb939b2a939)</a></p><p><b>role</b>: Excipient <span style=\"background: LightGoldenRodYellow; margin: 4px; border: 1px solid khaki\"> (#100000072082)</span></p><h3>Manufacturers</h3><table class=\"grid\"><tr><td>-</td><td><b>Manufacturer</b></td></tr><tr><td>*</td><td><a href=\"#Organization_85c5d81e-9d5a-4a15-8b9d-42bbbe0409c8\">See above (Organization/85c5d81e-9d5a-4a15-8b9d-42bbbe0409c8)</a></td></tr></table><blockquote><p><b>substance</b></p></blockquote></div>"
        },
        "identifier": {
          "use": "official",
          "system": "https://gsrs.ncats.nih.gov/ginas/app/beta/",
          "value": "3NXW29V3WO"
        },
        "status": "active",
        "for": [
          {
            "reference": "ManufacturedItemDefinition/23fed712-2d60-461d-83a6-5fb939b2a939"
          }
        ],
        "role": {
          "coding": [
            {
              "system": "https://spor.ema.europa.eu/rmswi/",
              "code": "100000072082"
            }
          ],
          "text": "Excipient"
        },
        "manufacturer": [
          {
            "manufacturer": {
              "reference": "Organization/85c5d81e-9d5a-4a15-8b9d-42bbbe0409c8"
            }
          }
        ],
        "substance": {
          "code": {
            "concept": {
              "coding": [
                {
                  "system": "https://gsrs.ncats.nih.gov/ginas/app/beta/",
                  "code": "3NXW29V3WO",
                  "display": "HYPROMELLOSE, UNSPECIFIED "
                }
              ]
            }
          }
        }
      }
    },
    {
      "resource": {
        "resourceType": "Ingredient",
        "id": "01f6666c-b966-4372-ba61-9ee902912dd8",
        "meta": {
          "profile": [
            "http://hl7.eu/fhir/ig/gravitate-health/StructureDefinition/Ingredient-uv-epi"
          ]
        },
        "text": {
          "status": "generated",
          "div": "<div xmlns=\"http://www.w3.org/1999/xhtml\"><p><b>Generated Narrative</b></p><div style=\"display: inline-block; background-color: #d9e0e7; padding: 6px; margin: 4px; border: 1px solid #8da1b4; border-radius: 5px; line-height: 60%\"><p style=\"margin-bottom: 0px\">Resource \"01f6666c-b966-4372-ba61-9ee902912dd8\" </p><p style=\"margin-bottom: 0px\">Profile: <a href=\"StructureDefinition-Ingredient-uv-epi.html\">Ingredient (ePI)</a></p></div><p><b>identifier</b>: id: ETJ7Z6XBU4 (OFFICIAL)</p><p><b>status</b>: active</p><p><b>for</b>: <a href=\"#ManufacturedItemDefinition_23fed712-2d60-461d-83a6-5fb939b2a939\">See above (ManufacturedItemDefinition/23fed712-2d60-461d-83a6-5fb939b2a939)</a></p><p><b>role</b>: Excipient <span style=\"background: LightGoldenRodYellow; margin: 4px; border: 1px solid khaki\"> (#100000072082)</span></p><h3>Manufacturers</h3><table class=\"grid\"><tr><td>-</td><td><b>Manufacturer</b></td></tr><tr><td>*</td><td><a href=\"#Organization_85c5d81e-9d5a-4a15-8b9d-42bbbe0409c8\">See above (Organization/85c5d81e-9d5a-4a15-8b9d-42bbbe0409c8)</a></td></tr></table><blockquote><p><b>substance</b></p></blockquote></div>"
        },
        "identifier": {
          "use": "official",
          "system": "https://gsrs.ncats.nih.gov/ginas/app/beta/",
          "value": "ETJ7Z6XBU4"
        },
        "status": "active",
        "for": [
          {
            "reference": "ManufacturedItemDefinition/23fed712-2d60-461d-83a6-5fb939b2a939"
          }
        ],
        "role": {
          "coding": [
            {
              "system": "https://spor.ema.europa.eu/rmswi/",
              "code": "100000072082"
            }
          ],
          "text": "Excipient"
        },
        "manufacturer": [
          {
            "manufacturer": {
              "reference": "Organization/85c5d81e-9d5a-4a15-8b9d-42bbbe0409c8"
            }
          }
        ],
        "substance": {
          "code": {
            "concept": {
              "coding": [
                {
                  "system": "https://gsrs.ncats.nih.gov/ginas/app/beta/",
                  "code": "ETJ7Z6XBU4",
                  "display": "light anhydrous silicic acid"
                }
              ]
            }
          }
        }
      }
    },
    {
      "resource": {
        "resourceType": "Ingredient",
        "id": "db5e392b-e7b2-47dc-829c-ee5182986dca",
        "meta": {
          "profile": [
            "http://hl7.eu/fhir/ig/gravitate-health/StructureDefinition/Ingredient-uv-epi"
          ]
        },
        "text": {
          "status": "generated",
          "div": "<div xmlns=\"http://www.w3.org/1999/xhtml\"><p><b>Generated Narrative</b></p><div style=\"display: inline-block; background-color: #d9e0e7; padding: 6px; margin: 4px; border: 1px solid #8da1b4; border-radius: 5px; line-height: 60%\"><p style=\"margin-bottom: 0px\">Resource \"db5e392b-e7b2-47dc-829c-ee5182986dca\" </p><p style=\"margin-bottom: 0px\">Profile: <a href=\"StructureDefinition-Ingredient-uv-epi.html\">Ingredient (ePI)</a></p></div><p><b>identifier</b>: id: 0E53J927NA (OFFICIAL)</p><p><b>status</b>: active</p><p><b>for</b>: <a href=\"#ManufacturedItemDefinition_23fed712-2d60-461d-83a6-5fb939b2a939\">See above (ManufacturedItemDefinition/23fed712-2d60-461d-83a6-5fb939b2a939)</a></p><p><b>role</b>: Excipient <span style=\"background: LightGoldenRodYellow; margin: 4px; border: 1px solid khaki\"> (#100000072082)</span></p><h3>Manufacturers</h3><table class=\"grid\"><tr><td>-</td><td><b>Manufacturer</b></td></tr><tr><td>*</td><td><a href=\"#Organization_85c5d81e-9d5a-4a15-8b9d-42bbbe0409c8\">See above (Organization/85c5d81e-9d5a-4a15-8b9d-42bbbe0409c8)</a></td></tr></table><blockquote><p><b>substance</b></p></blockquote></div>"
        },
        "identifier": {
          "use": "official",
          "system": "https://gsrs.ncats.nih.gov/ginas/app/beta/",
          "value": "0E53J927NA"
        },
        "status": "active",
        "for": [
          {
            "reference": "ManufacturedItemDefinition/23fed712-2d60-461d-83a6-5fb939b2a939"
          }
        ],
        "role": {
          "coding": [
            {
              "system": "https://spor.ema.europa.eu/rmswi/",
              "code": "100000072082"
            }
          ],
          "text": "Excipient"
        },
        "manufacturer": [
          {
            "manufacturer": {
              "reference": "Organization/85c5d81e-9d5a-4a15-8b9d-42bbbe0409c8"
            }
          }
        ],
        "substance": {
          "code": {
            "concept": {
              "coding": [
                {
                  "system": "https://gsrs.ncats.nih.gov/ginas/app/beta/",
                  "code": "0E53J927NA",
                  "display": "MAGNESIUM CARBONATE"
                }
              ]
            }
          }
        }
      }
    },
    {
      "resource": {
        "resourceType": "Ingredient",
        "id": "5acc6759-a7f7-4380-ab2e-ad72e8587598",
        "meta": {
          "profile": [
            "http://hl7.eu/fhir/ig/gravitate-health/StructureDefinition/Ingredient-uv-epi"
          ]
        },
        "text": {
          "status": "generated",
          "div": "<div xmlns=\"http://www.w3.org/1999/xhtml\"><p><b>Generated Narrative</b></p><div style=\"display: inline-block; background-color: #d9e0e7; padding: 6px; margin: 4px; border: 1px solid #8da1b4; border-radius: 5px; line-height: 60%\"><p style=\"margin-bottom: 0px\">Resource \"5acc6759-a7f7-4380-ab2e-ad72e8587598\" </p><p style=\"margin-bottom: 0px\">Profile: <a href=\"StructureDefinition-Ingredient-uv-epi.html\">Ingredient (ePI)</a></p></div><p><b>identifier</b>: id: 70097M6I30 (OFFICIAL)</p><p><b>status</b>: active</p><p><b>for</b>: <a href=\"#ManufacturedItemDefinition_23fed712-2d60-461d-83a6-5fb939b2a939\">See above (ManufacturedItemDefinition/23fed712-2d60-461d-83a6-5fb939b2a939)</a></p><p><b>role</b>: Excipient <span style=\"background: LightGoldenRodYellow; margin: 4px; border: 1px solid khaki\"> (#100000072082)</span></p><h3>Manufacturers</h3><table class=\"grid\"><tr><td>-</td><td><b>Manufacturer</b></td></tr><tr><td>*</td><td><a href=\"#Organization_85c5d81e-9d5a-4a15-8b9d-42bbbe0409c8\">See above (Organization/85c5d81e-9d5a-4a15-8b9d-42bbbe0409c8)</a></td></tr></table><blockquote><p><b>substance</b></p></blockquote></div>"
        },
        "identifier": {
          "use": "official",
          "system": "https://gsrs.ncats.nih.gov/ginas/app/beta/",
          "value": "70097M6I30"
        },
        "status": "active",
        "for": [
          {
            "reference": "ManufacturedItemDefinition/23fed712-2d60-461d-83a6-5fb939b2a939"
          }
        ],
        "role": {
          "coding": [
            {
              "system": "https://spor.ema.europa.eu/rmswi/",
              "code": "100000072082"
            }
          ],
          "text": "Excipient"
        },
        "manufacturer": [
          {
            "manufacturer": {
              "reference": "Organization/85c5d81e-9d5a-4a15-8b9d-42bbbe0409c8"
            }
          }
        ],
        "substance": {
          "code": {
            "concept": {
              "coding": [
                {
                  "system": "https://gsrs.ncats.nih.gov/ginas/app/beta/",
                  "code": "70097M6I30",
                  "display": "MAGNESIUM STEARATE"
                }
              ]
            }
          }
        }
      }
    },
    {
      "resource": {
        "resourceType": "Ingredient",
        "id": "5f2c1669-3991-4cc2-b252-958b738d5df8",
        "meta": {
          "profile": [
            "http://hl7.eu/fhir/ig/gravitate-health/StructureDefinition/Ingredient-uv-epi"
          ]
        },
        "text": {
          "status": "generated",
          "div": "<div xmlns=\"http://www.w3.org/1999/xhtml\"><p><b>Generated Narrative</b></p><div style=\"display: inline-block; background-color: #d9e0e7; padding: 6px; margin: 4px; border: 1px solid #8da1b4; border-radius: 5px; line-height: 60%\"><p style=\"margin-bottom: 0px\">Resource \"5f2c1669-3991-4cc2-b252-958b738d5df8\" </p><p style=\"margin-bottom: 0px\">Profile: <a href=\"StructureDefinition-Ingredient-uv-epi.html\">Ingredient (ePI)</a></p></div><p><b>identifier</b>: id: A2I8C7HI9T (OFFICIAL)</p><p><b>status</b>: active</p><p><b>for</b>: <a href=\"#ManufacturedItemDefinition_23fed712-2d60-461d-83a6-5fb939b2a939\">See above (ManufacturedItemDefinition/23fed712-2d60-461d-83a6-5fb939b2a939)</a></p><p><b>role</b>: Excipient <span style=\"background: LightGoldenRodYellow; margin: 4px; border: 1px solid khaki\"> (#100000072082)</span></p><h3>Manufacturers</h3><table class=\"grid\"><tr><td>-</td><td><b>Manufacturer</b></td></tr><tr><td>*</td><td><a href=\"#Organization_85c5d81e-9d5a-4a15-8b9d-42bbbe0409c8\">See above (Organization/85c5d81e-9d5a-4a15-8b9d-42bbbe0409c8)</a></td></tr></table><blockquote><p><b>substance</b></p></blockquote></div>"
        },
        "identifier": {
          "use": "official",
          "system": "https://gsrs.ncats.nih.gov/ginas/app/beta/",
          "value": "A2I8C7HI9T"
        },
        "status": "active",
        "for": [
          {
            "reference": "ManufacturedItemDefinition/23fed712-2d60-461d-83a6-5fb939b2a939"
          }
        ],
        "role": {
          "coding": [
            {
              "system": "https://spor.ema.europa.eu/rmswi/",
              "code": "100000072082"
            }
          ],
          "text": "Excipient"
        },
        "manufacturer": [
          {
            "manufacturer": {
              "reference": "Organization/85c5d81e-9d5a-4a15-8b9d-42bbbe0409c8"
            }
          }
        ],
        "substance": {
          "code": {
            "concept": {
              "coding": [
                {
                  "system": "https://gsrs.ncats.nih.gov/ginas/app/beta/",
                  "code": "A2I8C7HI9T",
                  "display": "METHYLPARABEN"
                }
              ]
            }
          }
        }
      }
    },
    {
      "resource": {
        "resourceType": "Ingredient",
        "id": "0c81c330-cf57-45c2-9ca2-559aea4c8060",
        "meta": {
          "profile": [
            "http://hl7.eu/fhir/ig/gravitate-health/StructureDefinition/Ingredient-uv-epi"
          ]
        },
        "text": {
          "status": "generated",
          "div": "<div xmlns=\"http://www.w3.org/1999/xhtml\"><p><b>Generated Narrative</b></p><div style=\"display: inline-block; background-color: #d9e0e7; padding: 6px; margin: 4px; border: 1px solid #8da1b4; border-radius: 5px; line-height: 60%\"><p style=\"margin-bottom: 0px\">Resource \"0c81c330-cf57-45c2-9ca2-559aea4c8060\" </p><p style=\"margin-bottom: 0px\">Profile: <a href=\"StructureDefinition-Ingredient-uv-epi.html\">Ingredient (ePI)</a></p></div><p><b>identifier</b>: id: 30IQX730WE (OFFICIAL)</p><p><b>status</b>: active</p><p><b>for</b>: <a href=\"#ManufacturedItemDefinition_23fed712-2d60-461d-83a6-5fb939b2a939\">See above (ManufacturedItemDefinition/23fed712-2d60-461d-83a6-5fb939b2a939)</a></p><p><b>role</b>: Excipient <span style=\"background: LightGoldenRodYellow; margin: 4px; border: 1px solid khaki\"> (#100000072082)</span></p><h3>Manufacturers</h3><table class=\"grid\"><tr><td>-</td><td><b>Manufacturer</b></td></tr><tr><td>*</td><td><a href=\"#Organization_85c5d81e-9d5a-4a15-8b9d-42bbbe0409c8\">See above (Organization/85c5d81e-9d5a-4a15-8b9d-42bbbe0409c8)</a></td></tr></table><blockquote><p><b>substance</b></p></blockquote></div>"
        },
        "identifier": {
          "use": "official",
          "system": "https://gsrs.ncats.nih.gov/ginas/app/beta/",
          "value": "30IQX730WE"
        },
        "status": "active",
        "for": [
          {
            "reference": "ManufacturedItemDefinition/23fed712-2d60-461d-83a6-5fb939b2a939"
          }
        ],
        "role": {
          "coding": [
            {
              "system": "https://spor.ema.europa.eu/rmswi/",
              "code": "100000072082"
            }
          ],
          "text": "Excipient"
        },
        "manufacturer": [
          {
            "manufacturer": {
              "reference": "Organization/85c5d81e-9d5a-4a15-8b9d-42bbbe0409c8"
            }
          }
        ],
        "substance": {
          "code": {
            "concept": {
              "coding": [
                {
                  "system": "https://gsrs.ncats.nih.gov/ginas/app/beta/",
                  "code": "30IQX730WE",
                  "display": "POLYETHYLENE GLYCOL 6000"
                }
              ]
            }
          }
        }
      }
    },
    {
      "resource": {
        "resourceType": "Ingredient",
        "id": "6708560e-135d-4b2a-afde-9e3b03f27939",
        "meta": {
          "profile": [
            "http://hl7.eu/fhir/ig/gravitate-health/StructureDefinition/Ingredient-uv-epi"
          ]
        },
        "text": {
          "status": "generated",
          "div": "<div xmlns=\"http://www.w3.org/1999/xhtml\"><p><b>Generated Narrative</b></p><div style=\"display: inline-block; background-color: #d9e0e7; padding: 6px; margin: 4px; border: 1px solid #8da1b4; border-radius: 5px; line-height: 60%\"><p style=\"margin-bottom: 0px\">Resource \"6708560e-135d-4b2a-afde-9e3b03f27939\" </p><p style=\"margin-bottom: 0px\">Profile: <a href=\"StructureDefinition-Ingredient-uv-epi.html\">Ingredient (ePI)</a></p></div><p><b>identifier</b>: id: 6OZP39ZG8H (OFFICIAL)</p><p><b>status</b>: active</p><p><b>for</b>: <a href=\"#ManufacturedItemDefinition_23fed712-2d60-461d-83a6-5fb939b2a939\">See above (ManufacturedItemDefinition/23fed712-2d60-461d-83a6-5fb939b2a939)</a></p><p><b>role</b>: Excipient <span style=\"background: LightGoldenRodYellow; margin: 4px; border: 1px solid khaki\"> (#100000072082)</span></p><h3>Manufacturers</h3><table class=\"grid\"><tr><td>-</td><td><b>Manufacturer</b></td></tr><tr><td>*</td><td><a href=\"#Organization_85c5d81e-9d5a-4a15-8b9d-42bbbe0409c8\">See above (Organization/85c5d81e-9d5a-4a15-8b9d-42bbbe0409c8)</a></td></tr></table><blockquote><p><b>substance</b></p></blockquote></div>"
        },
        "identifier": {
          "use": "official",
          "system": "https://gsrs.ncats.nih.gov/ginas/app/beta/",
          "value": "6OZP39ZG8H"
        },
        "status": "active",
        "for": [
          {
            "reference": "ManufacturedItemDefinition/23fed712-2d60-461d-83a6-5fb939b2a939"
          }
        ],
        "role": {
          "coding": [
            {
              "system": "https://spor.ema.europa.eu/rmswi/",
              "code": "100000072082"
            }
          ],
          "text": "Excipient"
        },
        "manufacturer": [
          {
            "manufacturer": {
              "reference": "Organization/85c5d81e-9d5a-4a15-8b9d-42bbbe0409c8"
            }
          }
        ],
        "substance": {
          "code": {
            "concept": {
              "coding": [
                {
                  "system": "https://gsrs.ncats.nih.gov/ginas/app/beta/",
                  "code": "6OZP39ZG8H",
                  "display": "POLYSORBATE 80"
                }
              ]
            }
          }
        }
      }
    },
    {
      "resource": {
        "resourceType": "Ingredient",
        "id": "733fb580-1139-4188-aff8-ad6efe243555",
        "meta": {
          "profile": [
            "http://hl7.eu/fhir/ig/gravitate-health/StructureDefinition/Ingredient-uv-epi"
          ]
        },
        "text": {
          "status": "generated",
          "div": "<div xmlns=\"http://www.w3.org/1999/xhtml\"><p><b>Generated Narrative</b></p><div style=\"display: inline-block; background-color: #d9e0e7; padding: 6px; margin: 4px; border: 1px solid #8da1b4; border-radius: 5px; line-height: 60%\"><p style=\"margin-bottom: 0px\">Resource \"733fb580-1139-4188-aff8-ad6efe243555\" </p><p style=\"margin-bottom: 0px\">Profile: <a href=\"StructureDefinition-Ingredient-uv-epi.html\">Ingredient (ePI)</a></p></div><p><b>identifier</b>: id: 532B59J990 (OFFICIAL)</p><p><b>status</b>: active</p><p><b>for</b>: <a href=\"#ManufacturedItemDefinition_23fed712-2d60-461d-83a6-5fb939b2a939\">See above (ManufacturedItemDefinition/23fed712-2d60-461d-83a6-5fb939b2a939)</a></p><p><b>role</b>: Excipient <span style=\"background: LightGoldenRodYellow; margin: 4px; border: 1px solid khaki\"> (#100000072082)</span></p><h3>Manufacturers</h3><table class=\"grid\"><tr><td>-</td><td><b>Manufacturer</b></td></tr><tr><td>*</td><td><a href=\"#Organization_85c5d81e-9d5a-4a15-8b9d-42bbbe0409c8\">See above (Organization/85c5d81e-9d5a-4a15-8b9d-42bbbe0409c8)</a></td></tr></table><blockquote><p><b>substance</b></p></blockquote></div>"
        },
        "identifier": {
          "use": "official",
          "system": "https://gsrs.ncats.nih.gov/ginas/app/beta/",
          "value": "532B59J990"
        },
        "status": "active",
        "for": [
          {
            "reference": "ManufacturedItemDefinition/23fed712-2d60-461d-83a6-5fb939b2a939"
          }
        ],
        "role": {
          "coding": [
            {
              "system": "https://spor.ema.europa.eu/rmswi/",
              "code": "100000072082"
            }
          ],
          "text": "Excipient"
        },
        "manufacturer": [
          {
            "manufacturer": {
              "reference": "Organization/85c5d81e-9d5a-4a15-8b9d-42bbbe0409c8"
            }
          }
        ],
        "substance": {
          "code": {
            "concept": {
              "coding": [
                {
                  "system": "https://gsrs.ncats.nih.gov/ginas/app/beta/",
                  "code": "532B59J990",
                  "display": "POLYVINYL ALCOHOL, UNSPECIFIED"
                }
              ]
            }
          }
        }
      }
    },
    {
      "resource": {
        "resourceType": "Ingredient",
        "id": "c5a3cb57-3f3e-4309-ae34-0926300de57e",
        "meta": {
          "profile": [
            "http://hl7.eu/fhir/ig/gravitate-health/StructureDefinition/Ingredient-uv-epi"
          ]
        },
        "text": {
          "status": "generated",
          "div": "<div xmlns=\"http://www.w3.org/1999/xhtml\"><p><b>Generated Narrative</b></p><div style=\"display: inline-block; background-color: #d9e0e7; padding: 6px; margin: 4px; border: 1px solid #8da1b4; border-radius: 5px; line-height: 60%\"><p style=\"margin-bottom: 0px\">Resource \"c5a3cb57-3f3e-4309-ae34-0926300de57e\" </p><p style=\"margin-bottom: 0px\">Profile: <a href=\"StructureDefinition-Ingredient-uv-epi.html\">Ingredient (ePI)</a></p></div><p><b>identifier</b>: id: C151H8M554 (OFFICIAL)</p><p><b>status</b>: active</p><p><b>for</b>: <a href=\"#ManufacturedItemDefinition_23fed712-2d60-461d-83a6-5fb939b2a939\">See above (ManufacturedItemDefinition/23fed712-2d60-461d-83a6-5fb939b2a939)</a></p><p><b>role</b>: Excipient <span style=\"background: LightGoldenRodYellow; margin: 4px; border: 1px solid khaki\"> (#100000072082)</span></p><h3>Manufacturers</h3><table class=\"grid\"><tr><td>-</td><td><b>Manufacturer</b></td></tr><tr><td>*</td><td><a href=\"#Organization_85c5d81e-9d5a-4a15-8b9d-42bbbe0409c8\">See above (Organization/85c5d81e-9d5a-4a15-8b9d-42bbbe0409c8)</a></td></tr></table><blockquote><p><b>substance</b></p></blockquote></div>"
        },
        "identifier": {
          "use": "official",
          "system": "https://gsrs.ncats.nih.gov/ginas/app/beta/",
          "value": "C151H8M554"
        },
        "status": "active",
        "for": [
          {
            "reference": "ManufacturedItemDefinition/23fed712-2d60-461d-83a6-5fb939b2a939"
          }
        ],
        "role": {
          "coding": [
            {
              "system": "https://spor.ema.europa.eu/rmswi/",
              "code": "100000072082"
            }
          ],
          "text": "Excipient"
        },
        "manufacturer": [
          {
            "manufacturer": {
              "reference": "Organization/85c5d81e-9d5a-4a15-8b9d-42bbbe0409c8"
            }
          }
        ],
        "substance": {
          "code": {
            "concept": {
              "coding": [
                {
                  "system": "https://gsrs.ncats.nih.gov/ginas/app/beta/",
                  "code": "C151H8M554",
                  "display": "SUCROSE"
                }
              ]
            }
          }
        }
      }
    },
    {
      "resource": {
        "resourceType": "Ingredient",
        "id": "16dc4148-5296-4f7a-8576-2e6bf9dde736",
        "meta": {
          "profile": [
            "http://hl7.eu/fhir/ig/gravitate-health/StructureDefinition/Ingredient-uv-epi"
          ]
        },
        "text": {
          "status": "generated",
          "div": "<div xmlns=\"http://www.w3.org/1999/xhtml\"><p><b>Generated Narrative</b></p><div style=\"display: inline-block; background-color: #d9e0e7; padding: 6px; margin: 4px; border: 1px solid #8da1b4; border-radius: 5px; line-height: 60%\"><p style=\"margin-bottom: 0px\">Resource \"16dc4148-5296-4f7a-8576-2e6bf9dde736\" </p><p style=\"margin-bottom: 0px\">Profile: <a href=\"StructureDefinition-Ingredient-uv-epi.html\">Ingredient (ePI)</a></p></div><p><b>identifier</b>: id: ETJ7Z6XBU4 (OFFICIAL)</p><p><b>status</b>: active</p><p><b>for</b>: <a href=\"#ManufacturedItemDefinition_23fed712-2d60-461d-83a6-5fb939b2a939\">See above (ManufacturedItemDefinition/23fed712-2d60-461d-83a6-5fb939b2a939)</a></p><p><b>role</b>: Excipient <span style=\"background: LightGoldenRodYellow; margin: 4px; border: 1px solid khaki\"> (#100000072082)</span></p><h3>Manufacturers</h3><table class=\"grid\"><tr><td>-</td><td><b>Manufacturer</b></td></tr><tr><td>*</td><td><a href=\"#Organization_85c5d81e-9d5a-4a15-8b9d-42bbbe0409c8\">See above (Organization/85c5d81e-9d5a-4a15-8b9d-42bbbe0409c8)</a></td></tr></table><blockquote><p><b>substance</b></p></blockquote></div>"
        },
        "identifier": {
          "use": "official",
          "system": "https://gsrs.ncats.nih.gov/ginas/app/beta/",
          "value": "ETJ7Z6XBU4"
        },
        "status": "active",
        "for": [
          {
            "reference": "ManufacturedItemDefinition/23fed712-2d60-461d-83a6-5fb939b2a939"
          }
        ],
        "role": {
          "coding": [
            {
              "system": "https://spor.ema.europa.eu/rmswi/",
              "code": "100000072082"
            }
          ],
          "text": "Excipient"
        },
        "manufacturer": [
          {
            "manufacturer": {
              "reference": "Organization/85c5d81e-9d5a-4a15-8b9d-42bbbe0409c8"
            }
          }
        ],
        "substance": {
          "code": {
            "concept": {
              "coding": [
                {
                  "system": "https://gsrs.ncats.nih.gov/ginas/app/beta/",
                  "code": "ETJ7Z6XBU4",
                  "display": "SILICON DIOXIDE"
                }
              ]
            }
          }
        }
      }
    },
    {
      "resource": {
        "resourceType": "Ingredient",
        "id": "b254f961-61ca-43f9-b3f9-5b0b5d4406a9",
        "meta": {
          "profile": [
            "http://hl7.eu/fhir/ig/gravitate-health/StructureDefinition/Ingredient-uv-epi"
          ]
        },
        "text": {
          "status": "generated",
          "div": "<div xmlns=\"http://www.w3.org/1999/xhtml\"><p><b>Generated Narrative</b></p><div style=\"display: inline-block; background-color: #d9e0e7; padding: 6px; margin: 4px; border: 1px solid #8da1b4; border-radius: 5px; line-height: 60%\"><p style=\"margin-bottom: 0px\">Resource \"b254f961-61ca-43f9-b3f9-5b0b5d4406a9\" </p><p style=\"margin-bottom: 0px\">Profile: <a href=\"StructureDefinition-Ingredient-uv-epi.html\">Ingredient (ePI)</a></p></div><p><b>identifier</b>: id: 5856J3G2A2 (OFFICIAL)</p><p><b>status</b>: active</p><p><b>for</b>: <a href=\"#ManufacturedItemDefinition_23fed712-2d60-461d-83a6-5fb939b2a939\">See above (ManufacturedItemDefinition/23fed712-2d60-461d-83a6-5fb939b2a939)</a></p><p><b>role</b>: Excipient <span style=\"background: LightGoldenRodYellow; margin: 4px; border: 1px solid khaki\"> (#100000072082)</span></p><h3>Manufacturers</h3><table class=\"grid\"><tr><td>-</td><td><b>Manufacturer</b></td></tr><tr><td>*</td><td><a href=\"#Organization_85c5d81e-9d5a-4a15-8b9d-42bbbe0409c8\">See above (Organization/85c5d81e-9d5a-4a15-8b9d-42bbbe0409c8)</a></td></tr></table><blockquote><p><b>substance</b></p></blockquote></div>"
        },
        "identifier": {
          "use": "official",
          "system": "https://gsrs.ncats.nih.gov/ginas/app/beta/",
          "value": "5856J3G2A2"
        },
        "status": "active",
        "for": [
          {
            "reference": "ManufacturedItemDefinition/23fed712-2d60-461d-83a6-5fb939b2a939"
          }
        ],
        "role": {
          "coding": [
            {
              "system": "https://spor.ema.europa.eu/rmswi/",
              "code": "100000072082"
            }
          ],
          "text": "Excipient"
        },
        "manufacturer": [
          {
            "manufacturer": {
              "reference": "Organization/85c5d81e-9d5a-4a15-8b9d-42bbbe0409c8"
            }
          }
        ],
        "substance": {
          "code": {
            "concept": {
              "coding": [
                {
                  "system": "https://gsrs.ncats.nih.gov/ginas/app/beta/",
                  "code": "5856J3G2A2",
                  "display": "SODIUM STARCH GLYCOLATE TYPE A POTATO"
                }
              ]
            }
          }
        }
      }
    },
    {
      "resource": {
        "resourceType": "Ingredient",
        "id": "d8d6a066-5358-42b2-ab97-de99c90af141",
        "meta": {
          "profile": [
            "http://hl7.eu/fhir/ig/gravitate-health/StructureDefinition/Ingredient-uv-epi"
          ]
        },
        "text": {
          "status": "generated",
          "div": "<div xmlns=\"http://www.w3.org/1999/xhtml\"><p><b>Generated Narrative</b></p><div style=\"display: inline-block; background-color: #d9e0e7; padding: 6px; margin: 4px; border: 1px solid #8da1b4; border-radius: 5px; line-height: 60%\"><p style=\"margin-bottom: 0px\">Resource \"d8d6a066-5358-42b2-ab97-de99c90af141\" </p><p style=\"margin-bottom: 0px\">Profile: <a href=\"StructureDefinition-Ingredient-uv-epi.html\">Ingredient (ePI)</a></p></div><p><b>identifier</b>: id: 5M631N9V0S (OFFICIAL)</p><p><b>status</b>: active</p><p><b>for</b>: <a href=\"#ManufacturedItemDefinition_23fed712-2d60-461d-83a6-5fb939b2a939\">See above (ManufacturedItemDefinition/23fed712-2d60-461d-83a6-5fb939b2a939)</a></p><p><b>role</b>: Excipient <span style=\"background: LightGoldenRodYellow; margin: 4px; border: 1px solid khaki\"> (#100000072082)</span></p><h3>Manufacturers</h3><table class=\"grid\"><tr><td>-</td><td><b>Manufacturer</b></td></tr><tr><td>*</td><td><a href=\"#Organization_85c5d81e-9d5a-4a15-8b9d-42bbbe0409c8\">See above (Organization/85c5d81e-9d5a-4a15-8b9d-42bbbe0409c8)</a></td></tr></table><blockquote><p><b>substance</b></p></blockquote></div>"
        },
        "identifier": {
          "use": "official",
          "system": "https://gsrs.ncats.nih.gov/ginas/app/beta/",
          "value": "5M631N9V0S"
        },
        "status": "active",
        "for": [
          {
            "reference": "ManufacturedItemDefinition/23fed712-2d60-461d-83a6-5fb939b2a939"
          }
        ],
        "role": {
          "coding": [
            {
              "system": "https://spor.ema.europa.eu/rmswi/",
              "code": "100000072082"
            }
          ],
          "text": "Excipient"
        },
        "manufacturer": [
          {
            "manufacturer": {
              "reference": "Organization/85c5d81e-9d5a-4a15-8b9d-42bbbe0409c8"
            }
          }
        ],
        "substance": {
          "code": {
            "concept": {
              "coding": [
                {
                  "system": "https://gsrs.ncats.nih.gov/ginas/app/beta/",
                  "code": "5M631N9V0S",
                  "display": "synthetic wax"
                }
              ]
            }
          }
        }
      }
    },
    {
      "resource": {
        "resourceType": "Ingredient",
        "id": "e057aea0-3ef3-4cd8-8a33-fa73c6df1602",
        "meta": {
          "profile": [
            "http://hl7.eu/fhir/ig/gravitate-health/StructureDefinition/Ingredient-uv-epi"
          ]
        },
        "text": {
          "status": "generated",
          "div": "<div xmlns=\"http://www.w3.org/1999/xhtml\"><p><b>Generated Narrative</b></p><div style=\"display: inline-block; background-color: #d9e0e7; padding: 6px; margin: 4px; border: 1px solid #8da1b4; border-radius: 5px; line-height: 60%\"><p style=\"margin-bottom: 0px\">Resource \"e057aea0-3ef3-4cd8-8a33-fa73c6df1602\" </p><p style=\"margin-bottom: 0px\">Profile: <a href=\"StructureDefinition-Ingredient-uv-epi.html\">Ingredient (ePI)</a></p></div><p><b>identifier</b>: id: 7SEV7J4R1U (OFFICIAL)</p><p><b>status</b>: active</p><p><b>for</b>: <a href=\"#ManufacturedItemDefinition_23fed712-2d60-461d-83a6-5fb939b2a939\">See above (ManufacturedItemDefinition/23fed712-2d60-461d-83a6-5fb939b2a939)</a></p><p><b>role</b>: Excipient <span style=\"background: LightGoldenRodYellow; margin: 4px; border: 1px solid khaki\"> (#100000072082)</span></p><h3>Manufacturers</h3><table class=\"grid\"><tr><td>-</td><td><b>Manufacturer</b></td></tr><tr><td>*</td><td><a href=\"#Organization_85c5d81e-9d5a-4a15-8b9d-42bbbe0409c8\">See above (Organization/85c5d81e-9d5a-4a15-8b9d-42bbbe0409c8)</a></td></tr></table><blockquote><p><b>substance</b></p></blockquote></div>"
        },
        "identifier": {
          "use": "official",
          "system": "https://gsrs.ncats.nih.gov/ginas/app/beta/",
          "value": "7SEV7J4R1U"
        },
        "status": "active",
        "for": [
          {
            "reference": "ManufacturedItemDefinition/23fed712-2d60-461d-83a6-5fb939b2a939"
          }
        ],
        "role": {
          "coding": [
            {
              "system": "https://spor.ema.europa.eu/rmswi/",
              "code": "100000072082"
            }
          ],
          "text": "Excipient"
        },
        "manufacturer": [
          {
            "manufacturer": {
              "reference": "Organization/85c5d81e-9d5a-4a15-8b9d-42bbbe0409c8"
            }
          }
        ],
        "substance": {
          "code": {
            "concept": {
              "coding": [
                {
                  "system": "https://gsrs.ncats.nih.gov/ginas/app/beta/",
                  "code": "7SEV7J4R1U",
                  "display": "talc"
                }
              ]
            }
          }
        }
      }
    },
    {
      "resource": {
        "resourceType": "Ingredient",
        "id": "854be59d-070a-44d7-a82e-bbb83200dc6a",
        "meta": {
          "profile": [
            "http://hl7.eu/fhir/ig/gravitate-health/StructureDefinition/Ingredient-uv-epi"
          ]
        },
        "text": {
          "status": "generated",
          "div": "<div xmlns=\"http://www.w3.org/1999/xhtml\"><p><b>Generated Narrative</b></p><div style=\"display: inline-block; background-color: #d9e0e7; padding: 6px; margin: 4px; border: 1px solid #8da1b4; border-radius: 5px; line-height: 60%\"><p style=\"margin-bottom: 0px\">Resource \"854be59d-070a-44d7-a82e-bbb83200dc6a\" </p><p style=\"margin-bottom: 0px\">Profile: <a href=\"StructureDefinition-Ingredient-uv-epi.html\">Ingredient (ePI)</a></p></div><p><b>identifier</b>: id: 15FIX9V2JP (OFFICIAL)</p><p><b>status</b>: active</p><p><b>for</b>: <a href=\"#ManufacturedItemDefinition_23fed712-2d60-461d-83a6-5fb939b2a939\">See above (ManufacturedItemDefinition/23fed712-2d60-461d-83a6-5fb939b2a939)</a></p><p><b>role</b>: Excipient <span style=\"background: LightGoldenRodYellow; margin: 4px; border: 1px solid khaki\"> (#100000072082)</span></p><h3>Manufacturers</h3><table class=\"grid\"><tr><td>-</td><td><b>Manufacturer</b></td></tr><tr><td>*</td><td><a href=\"#Organization_85c5d81e-9d5a-4a15-8b9d-42bbbe0409c8\">See above (Organization/85c5d81e-9d5a-4a15-8b9d-42bbbe0409c8)</a></td></tr></table><blockquote><p><b>substance</b></p></blockquote></div>"
        },
        "identifier": {
          "use": "official",
          "system": "https://gsrs.ncats.nih.gov/ginas/app/beta/",
          "value": "15FIX9V2JP"
        },
        "status": "active",
        "for": [
          {
            "reference": "ManufacturedItemDefinition/23fed712-2d60-461d-83a6-5fb939b2a939"
          }
        ],
        "role": {
          "coding": [
            {
              "system": "https://spor.ema.europa.eu/rmswi/",
              "code": "100000072082"
            }
          ],
          "text": "Excipient"
        },
        "manufacturer": [
          {
            "manufacturer": {
              "reference": "Organization/85c5d81e-9d5a-4a15-8b9d-42bbbe0409c8"
            }
          }
        ],
        "substance": {
          "code": {
            "concept": {
              "coding": [
                {
                  "system": "https://gsrs.ncats.nih.gov/ginas/app/beta/",
                  "code": "15FIX9V2JP",
                  "display": "TITANIUM DIOXIDE "
                }
              ]
            }
          }
        }
      }
    },
    {
      "resource": {
        "resourceType": "SubstanceDefinition",
        "id": "17c536c9-efd1-4427-a7b0-1bcdc266798f",
        "meta": {
          "profile": [
            "http://hl7.eu/fhir/ig/gravitate-health/StructureDefinition/SubstanceDefinition-uv-epi"
          ]
        },
        "text": {
          "status": "generated",
          "div": "<div xmlns=\"http://www.w3.org/1999/xhtml\"><p><b>Generated Narrative</b></p><div style=\"display: inline-block; background-color: #d9e0e7; padding: 6px; margin: 4px; border: 1px solid #8da1b4; border-radius: 5px; line-height: 60%\"><p style=\"margin-bottom: 0px\">Resource \"17c536c9-efd1-4427-a7b0-1bcdc266798f\" </p><p style=\"margin-bottom: 0px\">Profile: <a href=\"StructureDefinition-SubstanceDefinition-uv-epi.html\">SubstanceDefinition (ePI)</a></p></div><p><b>identifier</b>: id: NY22HMQ4BX (OFFICIAL)</p><p><b>version</b>: 39</p><p><b>status</b>: Validated (UNII) <span style=\"background: LightGoldenRodYellow; margin: 4px; border: 1px solid khaki\"> (#1)</span></p><p><b>description</b>: White to yellowish white It is a powder of. N ,N -Slightly soluble in dimethylformamide and tetrahydroflan, slightly soluble in methanol and ethanol (95), sparingly soluble in acetonitrile, and practically insoluble in water.</p><p><b>manufacturer</b>: <a href=\"#Organization_85c5d81e-9d5a-4a15-8b9d-42bbbe0409c8\">See above (Organization/85c5d81e-9d5a-4a15-8b9d-42bbbe0409c8)</a></p><h3>MolecularWeights</h3><table class=\"grid\"><tr><td>-</td><td><b>Type</b></td><td><b>Amount</b></td></tr><tr><td>*</td><td>exact <span style=\"background: LightGoldenRodYellow; margin: 4px; border: 1px solid khaki\"> ()</span></td><td>296.4</td></tr></table><h3>Structures</h3><table class=\"grid\"><tr><td>-</td><td><b>MolecularFormula</b></td></tr><tr><td>*</td><td>C20H24O2</td></tr></table><h3>Names</h3><table class=\"grid\"><tr><td>-</td><td><b>Name</b></td><td><b>Type</b></td></tr><tr><td>*</td><td>(+)-6-methyleneandrosta-1,4-diene-3,17-dione</td><td>Chemical Name <span style=\"background: LightGoldenRodYellow; margin: 4px; border: 1px solid khaki\"> (#1)</span></td></tr></table></div>"
        },
        "identifier": [
          {
            "use": "official",
            "system": "https://gsrs.ncats.nih.gov/ginas/app/beta/",
            "value": "NY22HMQ4BX"
          }
        ],
        "version": "39",
        "status": {
          "coding": [
            {
              "system": "https://gsrs.ncats.nih.gov/ginas/app/beta/",
              "code": "1"
            }
          ],
          "text": "Validated (UNII)"
        },
        "description": "White to yellowish white It is a powder of. N ,N -Slightly soluble in dimethylformamide and tetrahydroflan, slightly soluble in methanol and ethanol (95), sparingly soluble in acetonitrile, and practically insoluble in water.",
        "manufacturer": [
          {
            "reference": "Organization/85c5d81e-9d5a-4a15-8b9d-42bbbe0409c8"
          }
        ],
        "molecularWeight": [
          {
            "type": {
              "text": "exact"
            },
            "amount": {
              "value": 296.4
            }
          }
        ],
        "structure": {
          "molecularFormula": "C20H24O2"
        },
        "name": [
          {
            "name": "(+)-6-methyleneandrosta-1,4-diene-3,17-dione",
            "type": {
              "coding": [
                {
                  "system": "https://gsrs.ncats.nih.gov/ginas/app/beta/",
                  "code": "1"
                }
              ],
              "text": "Chemical Name"
            }
          }
        ]
      }
    }
  ]
}