<?xml version="1.0" encoding="UTF-8"?>

<Bundle xmlns="http://hl7.org/fhir">
  <id value="fmk-ips-skilarence"/>
  <meta>
    <lastUpdated value="2021-08-10T10:08:22.902+02:00"/>
  </meta>
  <language value="da"/>
  <identifier>
    <system value="urn:oid:2.16.724.4.8.10.200.10"/>
    <value value="3f9ec355-dc5c-4daa-915c-5d8dc3bb11bd"/>
  </identifier>
  <type value="document"/>
  <timestamp value="2021-08-10T10:08:22.902+02:00"/>
  <entry>
    <fullUrl value="bf76b01c-2b4c-4072-8341-d8c78a24091d"/>
    <resource>
      <Composition>
        <id value="bf76b01c-2b4c-4072-8341-d8c78a24091d"/>
        <text>
          <status value="generated"/><div xmlns="http://www.w3.org/1999/xhtml"><p><b>Generated Narrative</b></p><div style="display: inline-block; background-color: #d9e0e7; padding: 6px; margin: 4px; border: 1px solid #8da1b4; border-radius: 5px; line-height: 60%"><p style="margin-bottom: 0px">Resource "bf76b01c-2b4c-4072-8341-d8c78a24091d" </p></div><p><b>status</b>: final</p><p><b>type</b>: Patient summary Document <span style="background: LightGoldenRodYellow; margin: 4px; border: 1px solid khaki"> (<a href="https://loinc.org/">LOINC</a>#60591-5)</span></p><p><b>date</b>: 2021-08-10T10:08:22+02:00</p><p><b>author</b>: <span>: Andreas Bach</span></p><p><b>title</b>: Patient Summary as of Tue Aug 10 10:08:22 CEST 2021</p></div>
        </text>
        <status value="final"/>
        <type>
          <coding>
            <system value="http://loinc.org"/>
            <code value="60591-5"/>
            <display value="Patient summary Document"/>
          </coding>
        </type>
        <subject>
          <reference value="Patient/829b31e4-5457-40ba-897d-4487045b5a1b"/>
        </subject>
        <date value="2021-08-10T10:08:22+02:00"/>
        <author>
          <display value="Andreas Bach"/>
        </author>
        <title value="Patient Summary as of Tue Aug 10 10:08:22 CEST 2021"/>
        <section>
          <title value="Medication"/>
          <code>
            <coding>
              <system value="http://loinc.org"/>
              <code value="10160-0"/>
              <display value="History of Medication use Narrative"/>
            </coding>
          </code>
          <entry>
            <reference value="Patient/829b31e4-5457-40ba-897d-4487045b5a1b"/>
          </entry>
          <entry>
            <reference value="Medication/f4896a53-4200-4684-91d5-d4ee0377fa9e"/>
          </entry>
          <entry>
            <reference value="MedicationStatement/6fe36b74-d862-465b-92d8-6c89831125ae"/>
          </entry>
          <entry>
            <reference value="Medication/2ae72155-8b7b-455e-a39b-75f8dce01e81"/>
          </entry>
          <entry>
            <reference value="MedicationStatement/22bb5d94-8531-4c6a-af09-87bcd57e9421"/>
          </entry>
          <entry>
            <reference value="Medication/2c1524dc-45ca-4184-939e-063bb31f1ad4"/>
          </entry>
          <entry>
            <reference value="MedicationStatement/7a9d1be0-3ad9-4568-a67d-1e686fe12b78"/>
          </entry>
          <entry>
            <reference value="Medication/24816319-aab6-4766-89af-a79f5e921cf3"/>
          </entry>
          <entry>
            <reference value="MedicationStatement/50d65da1-9f36-4034-903b-d895de8ef758"/>
          </entry>
          <entry>
            <reference value="Medication/cc2c0a06-7469-465d-956f-59e39133b495"/>
          </entry>
          <entry>
            <reference value="MedicationStatement/46860de8-4e8c-4c69-8ba5-2492903d0b81"/>
          </entry>
        </section>
      </Composition>
    </resource>
  </entry>
  <entry>
    <fullUrl value="829b31e4-5457-40ba-897d-4487045b5a1b"/>
    <resource>
      <Patient>
        <id value="829b31e4-5457-40ba-897d-4487045b5a1b"/>
        <text>
          <status value="generated"/><div xmlns="http://www.w3.org/1999/xhtml"><p><b>Generated Narrative</b></p><div style="display: inline-block; background-color: #d9e0e7; padding: 6px; margin: 4px; border: 1px solid #8da1b4; border-radius: 5px; line-height: 60%"><p style="margin-bottom: 0px">Resource "829b31e4-5457-40ba-897d-4487045b5a1b" </p></div><p><b>identifier</b>: id: 2401010005</p><p><b>name</b>: Mads Svendsen (OFFICIAL)</p><p><b>address</b>: Hæstvej 355 Væggerløse 4873 (HOME)</p></div>
        </text>
        <identifier>
          <system value="urn:oid:1.2.208.176.1.2"/>
          <value value="2401010005"/>
        </identifier>
        <name>
          <use value="official"/>
          <family value="Svendsen"/>
          <given value="Mads"/>
        </name>
        <address>
          <use value="home"/>
          <type value="postal"/>
          <line value="Hæstvej 355"/>
          <city value="Væggerløse"/>
          <postalCode value="4873"/>
        </address>
      </Patient>
    </resource>
  </entry>
  <entry>
    <fullUrl value="f4896a53-4200-4684-91d5-d4ee0377fa9e"/>
    <resource>
      <Medication>
        <id value="f4896a53-4200-4684-91d5-d4ee0377fa9e"/>
        <text>
          <status value="generated"/><div xmlns="http://www.w3.org/1999/xhtml"><p><b>Generated Narrative</b></p><div style="display: inline-block; background-color: #d9e0e7; padding: 6px; margin: 4px; border: 1px solid #8da1b4; border-radius: 5px; line-height: 60%"><p style="margin-bottom: 0px">Resource "f4896a53-4200-4684-91d5-d4ee0377fa9e" </p></div><p><b>identifier</b>: id: 95cface3-8c65-4c5c-bc89-49c65e3e5fa9</p><p><b>code</b>: Skilarence <span style="background: LightGoldenRodYellow; margin: 4px; border: 1px solid khaki"> (<a href="http://terminology.hl7.org/3.0.0/CodeSystem-atc.html">WHO ATC</a>#L04AX07 "Dimethylfumarat")</span></p><h3>Ingredients</h3><table class="grid"><tr><td>-</td><td><b>IsActive</b></td></tr><tr><td>*</td><td>true</td></tr></table></div>
        </text>
        <extension url="http://gravitatehealth.eu/fhir/StructureDefinition/gravitate-dk-package-leaflet-url">
          <valueString value="https://www.indlaegssedler.dk/Search/Search/Search/500781"/>
        </extension>
        <extension url="http://gravitatehealth.eu/fhir/StructureDefinition/gravitate-dk-package-number">
          <valueString value="500781"/>
        </extension>
        <identifier>
          <system value="urn:oid:2.16.724.4.8.10.200.10"/>
          <value value="95cface3-8c65-4c5c-bc89-49c65e3e5fa9"/>
        </identifier>
        <code>
          <coding>
            <system value="http://www.whocc.no/atc"/>
            <code value="L04AX07"/>
            <display value="Dimethylfumarat"/>
          </coding>
          <text value="Skilarence"/>
        </code>
        <ingredient>
          <isActive value="true"/>
        </ingredient>
      </Medication>
    </resource>
  </entry>
  <entry>
    <fullUrl value="6fe36b74-d862-465b-92d8-6c89831125ae"/>
    <resource/>
  </entry>
  <entry>
    <fullUrl value="2ae72155-8b7b-455e-a39b-75f8dce01e81"/>
    <resource>
      <Medication>
        <id value="2ae72155-8b7b-455e-a39b-75f8dce01e81"/>
        <text>
          <status value="generated"/><div xmlns="http://www.w3.org/1999/xhtml"><p><b>Generated Narrative</b></p><div style="display: inline-block; background-color: #d9e0e7; padding: 6px; margin: 4px; border: 1px solid #8da1b4; border-radius: 5px; line-height: 60%"><p style="margin-bottom: 0px">Resource "2ae72155-8b7b-455e-a39b-75f8dce01e81" </p></div><p><b>identifier</b>: id: 4623dd4a-7428-4a8e-897b-eabee5788fc9</p><p><b>code</b>: Marevan <span style="background: LightGoldenRodYellow; margin: 4px; border: 1px solid khaki"> (<a href="http://terminology.hl7.org/3.0.0/CodeSystem-atc.html">WHO ATC</a>#B01AA03 "Warfarin")</span></p><h3>Ingredients</h3><table class="grid"><tr><td>-</td><td><b>IsActive</b></td></tr><tr><td>*</td><td>true</td></tr></table></div>
        </text>
        <identifier>
          <system value="urn:oid:2.16.724.4.8.10.200.10"/>
          <value value="4623dd4a-7428-4a8e-897b-eabee5788fc9"/>
        </identifier>
        <code>
          <coding>
            <system value="http://www.whocc.no/atc"/>
            <code value="B01AA03"/>
            <display value="Warfarin"/>
          </coding>
          <text value="Marevan"/>
        </code>
        <ingredient>
          <isActive value="true"/>
        </ingredient>
      </Medication>
    </resource>
  </entry>
  <entry>
    <fullUrl value="22bb5d94-8531-4c6a-af09-87bcd57e9421"/>
    <resource/>
  </entry>
  <entry>
    <fullUrl value="2c1524dc-45ca-4184-939e-063bb31f1ad4"/>
    <resource>
      <Medication>
        <id value="2c1524dc-45ca-4184-939e-063bb31f1ad4"/>
        <text>
          <status value="generated"/><div xmlns="http://www.w3.org/1999/xhtml"><p><b>Generated Narrative</b></p><div style="display: inline-block; background-color: #d9e0e7; padding: 6px; margin: 4px; border: 1px solid #8da1b4; border-radius: 5px; line-height: 60%"><p style="margin-bottom: 0px">Resource "2c1524dc-45ca-4184-939e-063bb31f1ad4" </p></div><p><b>identifier</b>: id: 8dd0f856-9a58-40c3-bac0-099347883a85</p><p><b>code</b>: Marevan <span style="background: LightGoldenRodYellow; margin: 4px; border: 1px solid khaki"> (<a href="http://terminology.hl7.org/3.0.0/CodeSystem-atc.html">WHO ATC</a>#B01AA03 "Warfarin")</span></p><h3>Ingredients</h3><table class="grid"><tr><td>-</td><td><b>IsActive</b></td></tr><tr><td>*</td><td>true</td></tr></table></div>
        </text>
        <identifier>
          <system value="urn:oid:2.16.724.4.8.10.200.10"/>
          <value value="8dd0f856-9a58-40c3-bac0-099347883a85"/>
        </identifier>
        <code>
          <coding>
            <system value="http://www.whocc.no/atc"/>
            <code value="B01AA03"/>
            <display value="Warfarin"/>
          </coding>
          <text value="Marevan"/>
        </code>
        <ingredient>
          <isActive value="true"/>
        </ingredient>
      </Medication>
    </resource>
  </entry>
  <entry>
    <fullUrl value="7a9d1be0-3ad9-4568-a67d-1e686fe12b78"/>
    <resource/>
  </entry>
  <entry>
    <fullUrl value="24816319-aab6-4766-89af-a79f5e921cf3"/>
    <resource>
      <Medication>
        <id value="24816319-aab6-4766-89af-a79f5e921cf3"/>
        <text>
          <status value="generated"/><div xmlns="http://www.w3.org/1999/xhtml"><p><b>Generated Narrative</b></p><div style="display: inline-block; background-color: #d9e0e7; padding: 6px; margin: 4px; border: 1px solid #8da1b4; border-radius: 5px; line-height: 60%"><p style="margin-bottom: 0px">Resource "24816319-aab6-4766-89af-a79f5e921cf3" </p></div><p><b>identifier</b>: id: 7894c945-3b9a-47eb-84bb-307c3bd0144d</p><p><b>code</b>: Marevan <span style="background: LightGoldenRodYellow; margin: 4px; border: 1px solid khaki"> (<a href="http://terminology.hl7.org/3.0.0/CodeSystem-atc.html">WHO ATC</a>#B01AA03 "Warfarin")</span></p><h3>Ingredients</h3><table class="grid"><tr><td>-</td><td><b>IsActive</b></td></tr><tr><td>*</td><td>true</td></tr></table></div>
        </text>
        <identifier>
          <system value="urn:oid:2.16.724.4.8.10.200.10"/>
          <value value="7894c945-3b9a-47eb-84bb-307c3bd0144d"/>
        </identifier>
        <code>
          <coding>
            <system value="http://www.whocc.no/atc"/>
            <code value="B01AA03"/>
            <display value="Warfarin"/>
          </coding>
          <text value="Marevan"/>
        </code>
        <ingredient>
          <isActive value="true"/>
        </ingredient>
      </Medication>
    </resource>
  </entry>
  <entry>
    <fullUrl value="50d65da1-9f36-4034-903b-d895de8ef758"/>
    <resource/>
  </entry>
  <entry>
    <fullUrl value="cc2c0a06-7469-465d-956f-59e39133b495"/>
    <resource>
      <Medication>
        <id value="cc2c0a06-7469-465d-956f-59e39133b495"/>
        <text>
          <status value="generated"/><div xmlns="http://www.w3.org/1999/xhtml"><p><b>Generated Narrative</b></p><div style="display: inline-block; background-color: #d9e0e7; padding: 6px; margin: 4px; border: 1px solid #8da1b4; border-radius: 5px; line-height: 60%"><p style="margin-bottom: 0px">Resource "cc2c0a06-7469-465d-956f-59e39133b495" </p></div><p><b>identifier</b>: id: 81fbceed-f24e-4105-bfa2-4b604ca35937</p><p><b>code</b>: Marevan <span style="background: LightGoldenRodYellow; margin: 4px; border: 1px solid khaki"> (<a href="http://terminology.hl7.org/3.0.0/CodeSystem-atc.html">WHO ATC</a>#B01AA03 "Warfarin")</span></p><h3>Ingredients</h3><table class="grid"><tr><td>-</td><td><b>IsActive</b></td></tr><tr><td>*</td><td>true</td></tr></table></div>
        </text>
        <identifier>
          <system value="urn:oid:2.16.724.4.8.10.200.10"/>
          <value value="81fbceed-f24e-4105-bfa2-4b604ca35937"/>
        </identifier>
        <code>
          <coding>
            <system value="http://www.whocc.no/atc"/>
            <code value="B01AA03"/>
            <display value="Warfarin"/>
          </coding>
          <text value="Marevan"/>
        </code>
        <ingredient>
          <isActive value="true"/>
        </ingredient>
      </Medication>
    </resource>
  </entry>
  <entry>
    <fullUrl value="46860de8-4e8c-4c69-8ba5-2492903d0b81"/>
    <resource/>
  </entry>
</Bundle>