<?xml version="1.0" encoding="UTF-8"?>

<Bundle xmlns="http://hl7.org/fhir">
  <id value="gravitate-maria"/>
  <identifier>
    <system value="https://www.gravitatehealth.eu/sid/doc"/>
    <value value="maria-ips-1"/>
  </identifier>
  <type value="document"/>
  <timestamp value="2021-09-03T08:38:00+02:00"/>
  <entry>
    <fullUrl value="urn:uuid:2fa5b223-ebce-4f39-9c66-5dc014f73572"/>
    <resource>
      <Composition>
        <id value="gravitate-maria"/>
        <text>
          <status value="generated"/><div xmlns="http://www.w3.org/1999/xhtml"><p><b>Generated Narrative</b></p><p><b>status</b>: final</p><p><b>type</b>: <span title="Codes: {http://loinc.org 60591-5}">Patient summary Document</span></p><p><b>date</b>: Jul 10, 2018, 1:22:00 PM</p><p><b>author</b>: <a href="#Practitioner_Inline-Instance-for-gravitate-maria-3">Dr. Anna Karlsson. Generated Summary: Anne Karlsson </a></p><p><b>title</b>: Patient Summary (Maria Gravitate)</p><p><b>confidentiality</b>: N</p></div>
        </text>
        <status value="final"/>
        <type>
          <coding>
            <system value="http://loinc.org"/>
            <code value="60591-5"/>
            <display value="Patient summary Document"/>
          </coding>
        </type>
        <subject>
          <reference value="urn:uuid:c154158f-6a43-4ab7-8443-e7f4bf915dd5"/>
          <display value="Maria Gravitate"/>
        </subject>
        <date value="2018-07-10T15:22:00+02:00"/>
        <author>
          <reference value="urn:uuid:1ece89c5-fda3-4db9-ace6-decbe6c603d8"/>
          <display value="Dr. Anna Karlsson"/>
        </author>
        <title value="Patient Summary (Maria Gravitate)"/>
        <confidentiality value="N"/>
        <section>
          <title value="Allergies and Intolerances"/>
          <code>
            <coding>
              <system value="http://loinc.org"/>
              <code value="48765-2"/>
              <display value="Allergies and adverse reactions Document"/>
            </coding>
          </code>
          <text>
            <status value="generated"/><div xmlns="http://www.w3.org/1999/xhtml"><ul><li>Hay fever (pollen)</li></ul></div>
          </text>
          <entry>
            <reference value="urn:uuid:1dff4474-fa08-4f45-8260-dbb23094bf07"/>
            <display value="Hay fever (pollen)"/>
          </entry>
        </section>
        <section>
          <title value="Problem List"/>
          <code>
            <coding>
              <system value="http://loinc.org"/>
              <code value="11450-4"/>
              <display value="Problem list Reported"/>
            </coding>
          </code>
          <text>
            <status value="generated"/><div xmlns="http://www.w3.org/1999/xhtml"><ul><li>Psoriasis</li><li>Hypertension</li><li>Congestive heart failure</li></ul></div>
          </text>
          <entry>
            <reference value="urn:uuid:bcc79261-142c-48ec-b032-f3f9af49ec58"/>
            <display value="Psoriasis"/>
          </entry>
          <entry>
            <reference value="urn:uuid:f06b7cf8-c15c-4288-a0f9-45a1026e5130"/>
            <display value="Hypertension"/>
          </entry>
          <entry>
            <reference value="urn:uuid:a4a9d90a-d1b0-4d60-82f0-c52343dc6256"/>
            <display value="Congestive heart failure"/>
          </entry>
        </section>
        <section>
          <title value="Medication Summary"/>
          <code>
            <coding>
              <system value="http://loinc.org"/>
              <code value="10160-0"/>
              <display value="Hx of Medication use"/>
            </coding>
          </code>
          <text>
            <status value="generated"/><div xmlns="http://www.w3.org/1999/xhtml"><table><thead><tr><th>Brand Name</th><th>MAN</th><th>Active Substance</th><th>Common Name</th><th>ATC</th><th>Strength</th><th>Dose Form</th><th>RoA</th></tr></thead><tbody><tr><td>Skilarence</td><td>EU/1/17/1201/001</td><td>dimethyl fumarate (FO2303MNI2)</td><td>dimethyl fumarate</td><td>L04AX07</td><td>30 mg</td><td>Tablet</td><td>Oral use</td></tr><tr><td>Karvea</td><td>EMEA/H/C/000142</td><td>irbesartan (J0E2756Z7N)</td><td>irbesartan</td><td>C09DA04</td><td>75 mg</td><td>Tablet</td><td>Oral use</td></tr><tr><td>Boots Decongestant 0.05% w/v Nasal spray</td><td>PL 16028/0049</td><td>oxymetazoline hydrochloride (K89MJ0S5VY)</td><td>oxymetazoline hydrochloride</td><td>R01AA05su</td><td>0.05 mg / 1 ml</td><td>Spray (unspecified)</td><td>Nasal use</td></tr></tbody></table></div>
          </text>
          <entry>
            <reference value="urn:uuid:29074ca4-efcb-4ff4-8446-feed2399a899"/>
            <display value="Dimethyl fumarate 30 mg Tablet"/>
          </entry>
          <entry>
            <reference value="urn:uuid:f6cb1218-f81c-4338-80d8-3c10910f78fd"/>
            <display value="Irbesartan 75 mg Tablet"/>
          </entry>
          <entry>
            <reference value="urn:uuid:f26084c9-b1c8-46d9-acb2-1d400ade87ba"/>
            <display value="Oxymetazoline hydrochloride  0.05 mg / 1 ml Spray"/>
          </entry>
        </section>
      </Composition>
    </resource>
  </entry>
  <entry>
    <fullUrl value="urn:uuid:c154158f-6a43-4ab7-8443-e7f4bf915dd5"/>
    <resource>
      <Patient>
        <id value="Inline-Instance-for-gravitate-maria-2"/>
        <text>
          <status value="extensions"/><div xmlns="http://www.w3.org/1999/xhtml"><p><b>Generated Narrative</b></p><blockquote><p><b>citizenship</b></p><p><b>value</b>: <span title="Codes: {urn:iso:std:iso:3166 NO}">Norway</span></p></blockquote><p><b>identifier</b>: id: maria-1</p><p><b>active</b>: true</p><p><b>name</b>: Maria Gravitate </p><p><b>gender</b>: female</p><p><b>birthDate</b>: 1946-05-05</p></div>
        </text>
        <extension url="http://hl7.org/fhir/StructureDefinition/patient-citizenship">
          <extension url="code">
            <valueCodeableConcept>
              <coding>
                <system value="urn:iso:std:iso:3166"/>
                <code value="NO"/>
                <display value="Norway"/>
              </coding>
            </valueCodeableConcept>
          </extension>
        </extension>
        <identifier>
          <system value="https://www.gravitatehealth.eu/sid/doc"/>
          <value value="maria-1"/>
        </identifier>
        <active value="true"/>
        <name>
          <family value="Gravitate"/>
          <given value="Maria"/>
        </name>
        <gender value="female"/>
        <birthDate value="1946-05-05"/>
      </Patient>
    </resource>
  </entry>
  <entry>
    <fullUrl value="urn:uuid:1ece89c5-fda3-4db9-ace6-decbe6c603d8"/>
    <resource>
      <Practitioner>
        <id value="Inline-Instance-for-gravitate-maria-3"/>
        <text>
          <status value="generated"/><div xmlns="http://www.w3.org/1999/xhtml"><p><b>Generated Narrative</b></p><p><b>name</b>: Anne Karlsson </p></div>
        </text>
        <name>
          <family value="Karlsson"/>
          <given value="Anne"/>
          <prefix value="Dr."/>
        </name>
      </Practitioner>
    </resource>
  </entry>
  <entry>
    <fullUrl value="urn:uuid:1dff4474-fa08-4f45-8260-dbb23094bf07"/>
    <resource>
      <AllergyIntolerance>
        <id value="gravitate-maria-allergy-1"/>
        <text>
          <status value="generated"/><div xmlns="http://www.w3.org/1999/xhtml"><p><b>Generated Narrative</b></p><p><b>clinicalStatus</b>: <span title="Codes: {http://terminology.hl7.org/CodeSystem/allergyintolerance-clinical active}">Active</span></p><p><b>verificationStatus</b>: <span title="Codes: {http://terminology.hl7.org/CodeSystem/allergyintolerance-verification confirmed}">Confirmed</span></p><p><b>code</b>: <span title="Codes: {http://snomed.info/sct 256259004}">Pollen</span></p><p><b>patient</b>: <a href="#Patient_Inline-Instance-for-gravitate-maria-2">Maria Gravitate. Generated Summary: id: maria-1; active; Maria Gravitate ; gender: female; birthDate: 1946-05-05</a></p><h3>Reactions</h3><table class="grid"><tr><td>-</td><td><b>Manifestation</b></td></tr><tr><td>*</td><td><span title="Codes: {http://snomed.info/sct 21719001}">Hay fever</span></td></tr></table></div>
        </text>
        <clinicalStatus>
          <coding>
            <system value="http://terminology.hl7.org/CodeSystem/allergyintolerance-clinical"/>
            <code value="active"/>
          </coding>
        </clinicalStatus>
        <verificationStatus>
          <coding>
            <system value="http://terminology.hl7.org/CodeSystem/allergyintolerance-verification"/>
            <code value="confirmed"/>
          </coding>
        </verificationStatus>
        <code>
          <coding>
            <system value="http://snomed.info/sct"/>
            <code value="256259004"/>
            <display value="Pollen"/>
          </coding>
        </code>
        <patient>
          <reference value="urn:uuid:c154158f-6a43-4ab7-8443-e7f4bf915dd5"/>
          <display value="Maria Gravitate"/>
        </patient>
        <reaction>
          <manifestation>
            <coding>
              <system value="http://snomed.info/sct"/>
              <code value="21719001"/>
              <display value="Allergic rhinitis caused by pollen"/>
            </coding>
            <text value="Hay fever"/>
          </manifestation>
        </reaction>
      </AllergyIntolerance>
    </resource>
  </entry>
  <entry>
    <fullUrl value="urn:uuid:bcc79261-142c-48ec-b032-f3f9af49ec58"/>
    <resource>
      <Condition>
        <id value="gravitate-maria-condition-1"/>
        <text>
          <status value="generated"/><div xmlns="http://www.w3.org/1999/xhtml"><p><b>Generated Narrative</b></p><p><b>clinicalStatus</b>: <span title="Codes: {http://terminology.hl7.org/CodeSystem/condition-clinical active}">Active</span></p><p><b>code</b>: <span title="Codes: {http://snomed.info/sct 9014002}">Psoriasis</span></p><p><b>subject</b>: <a href="#Patient_Inline-Instance-for-gravitate-maria-2">Maria Gravitate. Generated Summary: id: maria-1; active; Maria Gravitate ; gender: female; birthDate: 1946-05-05</a></p><p><b>asserter</b>: <a href="#Practitioner_Inline-Instance-for-gravitate-maria-3">Dr. Anna Karlsson. Generated Summary: Anne Karlsson </a></p></div>
        </text>
        <clinicalStatus>
          <coding>
            <system value="http://terminology.hl7.org/CodeSystem/condition-clinical"/>
            <code value="active"/>
          </coding>
        </clinicalStatus>
        <code>
          <coding>
            <system value="http://snomed.info/sct"/>
            <code value="9014002"/>
            <display value="Psoriasis"/>
          </coding>
          <text value="Psoriasis"/>
        </code>
        <subject>
          <reference value="urn:uuid:c154158f-6a43-4ab7-8443-e7f4bf915dd5"/>
          <display value="Maria Gravitate"/>
        </subject>
        <asserter>
          <reference value="urn:uuid:1ece89c5-fda3-4db9-ace6-decbe6c603d8"/>
          <display value="Dr. Anna Karlsson"/>
        </asserter>
      </Condition>
    </resource>
  </entry>
  <entry>
    <fullUrl value="urn:uuid:a4a9d90a-d1b0-4d60-82f0-c52343dc6256"/>
    <resource>
      <Condition>
        <id value="gravitate-maria-condition-2"/>
        <text>
          <status value="generated"/><div xmlns="http://www.w3.org/1999/xhtml"><p><b>Generated Narrative</b></p><p><b>clinicalStatus</b>: <span title="Codes: {http://terminology.hl7.org/CodeSystem/condition-clinical active}">Active</span></p><p><b>code</b>: <span title="Codes: {http://snomed.info/sct 42343007}">Congestive heart failure</span></p><p><b>subject</b>: <a href="#Patient_Inline-Instance-for-gravitate-maria-2">Maria Gravitate. Generated Summary: id: maria-1; active; Maria Gravitate ; gender: female; birthDate: 1946-05-05</a></p><p><b>onset</b>: 2015</p><p><b>asserter</b>: <a href="#Practitioner_Inline-Instance-for-gravitate-maria-3">Dr. Anna Karlsson. Generated Summary: Anne Karlsson </a></p></div>
        </text>
        <clinicalStatus>
          <coding>
            <system value="http://terminology.hl7.org/CodeSystem/condition-clinical"/>
            <code value="active"/>
          </coding>
        </clinicalStatus>
        <code>
          <coding>
            <system value="http://snomed.info/sct"/>
            <code value="42343007"/>
            <display value="Congestive heart failure"/>
          </coding>
          <text value="Congestive heart failure"/>
        </code>
        <subject>
          <reference value="urn:uuid:c154158f-6a43-4ab7-8443-e7f4bf915dd5"/>
          <display value="Maria Gravitate"/>
        </subject>
        <onsetDateTime value="2015"/>
        <asserter>
          <reference value="urn:uuid:1ece89c5-fda3-4db9-ace6-decbe6c603d8"/>
          <display value="Dr. Anna Karlsson"/>
        </asserter>
      </Condition>
    </resource>
  </entry>
  <entry>
    <fullUrl value="urn:uuid:f06b7cf8-c15c-4288-a0f9-45a1026e5130"/>
    <resource>
      <Condition>
        <id value="gravitate-maria-condition-3"/>
        <text>
          <status value="generated"/><div xmlns="http://www.w3.org/1999/xhtml"><p><b>Generated Narrative</b></p><p><b>clinicalStatus</b>: <span title="Codes: {http://terminology.hl7.org/CodeSystem/condition-clinical active}">Active</span></p><p><b>code</b>: <span title="Codes: {http://snomed.info/sct 38341003}">Hypertension</span></p><p><b>subject</b>: <a href="#Patient_Inline-Instance-for-gravitate-maria-2">Maria Gravitate. Generated Summary: id: maria-1; active; Maria Gravitate ; gender: female; birthDate: 1946-05-05</a></p><p><b>onset</b>: 1993</p></div>
        </text>
        <clinicalStatus>
          <coding>
            <system value="http://terminology.hl7.org/CodeSystem/condition-clinical"/>
            <code value="active"/>
          </coding>
        </clinicalStatus>
        <code>
          <coding>
            <system value="http://snomed.info/sct"/>
            <code value="38341003"/>
            <display value="HT - Hypertension"/>
          </coding>
          <text value="Hypertension"/>
        </code>
        <subject>
          <reference value="urn:uuid:c154158f-6a43-4ab7-8443-e7f4bf915dd5"/>
          <display value="Maria Gravitate"/>
        </subject>
        <onsetDateTime value="1993"/>
      </Condition>
    </resource>
  </entry>
  <entry>
    <fullUrl value="urn:uuid:29074ca4-efcb-4ff4-8446-feed2399a899"/>
    <resource>
      <MedicationStatement>
        <id value="gravitate-maria-medicationStatement-1"/>
        <text>
          <status value="generated"/><div xmlns="http://www.w3.org/1999/xhtml"><p><b>Generated Narrative</b></p><p><b>status</b>: active</p><p><b>medication</b>: <a href="#Medication_gravitate-maria-medication-1">Dimethyl fumarate 30 mg Tablet. Generated Summary: <span title="Codes: {http://spor.ema.europa.eu/v2/marketing-authorisation-numbers EU/1/17/1201/001}, {http://www.whocc.no/atc L04AX07}">Skilarence</span>; <span title="Codes: {http://standardterms.edqm.eu 10219000}">Tablet</span></a></p><p><b>subject</b>: <a href="#Patient_Inline-Instance-for-gravitate-maria-2">Maria Gravitate. Generated Summary: id: maria-1; active; Maria Gravitate ; gender: female; birthDate: 1946-05-05</a></p></div>
        </text>
        <status value="active"/>
        <medicationReference>
          <reference value="urn:uuid:b50ae644-e0b7-4007-809f-26f493cbe36b"/>
          <display value="Dimethyl fumarate 30 mg Tablet"/>
        </medicationReference>
        <subject>
          <reference value="urn:uuid:c154158f-6a43-4ab7-8443-e7f4bf915dd5"/>
          <display value="Maria Gravitate"/>
        </subject>
        <dosage>
          <route>
            <coding>
              <system value="http://standardterms.edqm.eu"/>
              <code value="20053000"/>
              <display value="Oral use"/>
            </coding>
          </route>
        </dosage>
      </MedicationStatement>
    </resource>
  </entry>
  <entry>
    <fullUrl value="urn:uuid:f6cb1218-f81c-4338-80d8-3c10910f78fd"/>
    <resource>
      <MedicationStatement>
        <id value="gravitate-maria-medicationStatement-2"/>
        <text>
          <status value="generated"/><div xmlns="http://www.w3.org/1999/xhtml"><p><b>Generated Narrative</b></p><p><b>status</b>: active</p><p><b>medication</b>: <a href="#Medication_gravitate-maria-medication-2">Irbesartan 75 mg Tablet. Generated Summary: <span title="Codes: {http://spor.ema.europa.eu/v2/marketing-authorisation-numbers EMEA/H/C/000142}, {http://www.whocc.no/atc C09DA04}">Karvea</span>; <span title="Codes: {http://standardterms.edqm.eu 10219000}">Tablet</span></a></p><p><b>subject</b>: <a href="#Patient_Inline-Instance-for-gravitate-maria-2">Maria Gravitate. Generated Summary: id: maria-1; active; Maria Gravitate ; gender: female; birthDate: 1946-05-05</a></p></div>
        </text>
        <status value="active"/>
        <medicationReference>
          <reference value="urn:uuid:de131e15-ed13-4b31-b38c-3204a84d99c4"/>
          <display value="Irbesartan 75 mg Tablet"/>
        </medicationReference>
        <subject>
          <reference value="urn:uuid:c154158f-6a43-4ab7-8443-e7f4bf915dd5"/>
          <display value="Maria Gravitate"/>
        </subject>
        <dosage>
          <route>
            <coding>
              <system value="http://standardterms.edqm.eu"/>
              <code value="20053000"/>
              <display value="Oral use"/>
            </coding>
          </route>
        </dosage>
      </MedicationStatement>
    </resource>
  </entry>
  <entry>
    <fullUrl value="urn:uuid:f26084c9-b1c8-46d9-acb2-1d400ade87ba"/>
    <resource>
      <MedicationStatement>
        <id value="gravitate-maria-medicationStatement-3"/>
        <text>
          <status value="generated"/><div xmlns="http://www.w3.org/1999/xhtml"><p><b>Generated Narrative</b></p><p><b>status</b>: active</p><p><b>medication</b>: <a href="#Medication_gravitate-maria-medication-3">Oxymetazoline hydrochloride  0.05 mg / 1 ml Spray. Generated Summary: <span title="Codes: {https://www.gravitatehealth.eu/sid/man 16028/0049}, {http://www.whocc.no/atc R01AA05}">Boots Decongestant 0.05% w/v Nasal spray</span>; <span title="Codes: ">Spray (unspecified)</span></a></p><p><b>subject</b>: <a href="#Patient_Inline-Instance-for-gravitate-maria-2">Maria Gravitate. Generated Summary: id: maria-1; active; Maria Gravitate ; gender: female; birthDate: 1946-05-05</a></p></div>
        </text>
        <status value="active"/>
        <medicationReference>
          <reference value="urn:uuid:9ac3356c-4ea4-4814-84c3-235484f2ef19"/>
          <display value="Oxymetazoline hydrochloride  0.05 mg / 1 ml Spray"/>
        </medicationReference>
        <subject>
          <reference value="urn:uuid:c154158f-6a43-4ab7-8443-e7f4bf915dd5"/>
          <display value="Maria Gravitate"/>
        </subject>
        <dosage>
          <route>
            <coding>
              <system value="http://standardterms.edqm.eu"/>
              <code value="20049000"/>
              <display value="Nasal use"/>
            </coding>
          </route>
        </dosage>
      </MedicationStatement>
    </resource>
  </entry>
  <entry>
    <fullUrl value="urn:uuid:b50ae644-e0b7-4007-809f-26f493cbe36b"/>
    <resource>
      <Medication>
        <id value="gravitate-maria-medication-1"/>
        <text>
          <status value="generated"/><div xmlns="http://www.w3.org/1999/xhtml"><p><b>Generated Narrative</b></p><p><b>code</b>: <span title="Codes: {http://spor.ema.europa.eu/v2/marketing-authorisation-numbers EU/1/17/1201/001}, {http://www.whocc.no/atc L04AX07}">Skilarence</span></p><p><b>form</b>: <span title="Codes: {http://standardterms.edqm.eu 10219000}">Tablet</span></p><h3>Ingredients</h3><table class="grid"><tr><td>-</td><td><b>Item[x]</b></td><td><b>Strength</b></td></tr><tr><td>*</td><td><span title="Codes: {http://fdasis.nlm.nih.gov FO2303MNI2}">dimethyl fumarate</span></td><td>30 mg/1 Tablet</td></tr></table></div>
        </text>
        <code>
          <coding>
            <system value="http://spor.ema.europa.eu/v2/marketing-authorisation-numbers"/>
            <code value="EU/1/17/1201/001"/>
            <display value="Skilarence"/>
          </coding>
          <coding>
            <system value="http://www.whocc.no/atc"/>
            <code value="L04AX07"/>
            <display value="dimethyl fumarate"/>
          </coding>
        </code>
        <form>
          <coding>
            <system value="http://standardterms.edqm.eu"/>
            <code value="10219000"/>
            <display value="Tablet"/>
          </coding>
        </form>
        <ingredient>
          <itemCodeableConcept>
            <coding>
              <system value="http://fdasis.nlm.nih.gov"/>
              <code value="FO2303MNI2"/>
              <display value="dimethyl fumarate"/>
            </coding>
            <text value="dimethyl fumarate"/>
          </itemCodeableConcept>
          <strength>
            <numerator>
              <value value="30"/>
              <unit value="mg"/>
              <system value="http://unitsofmeasure.org"/>
              <code value="mg"/>
            </numerator>
            <denominator>
              <value value="1"/>
              <unit value="Tablet"/>
              <system value="http://unitsofmeasure.org"/>
              <code value="{tablet}"/>
            </denominator>
          </strength>
        </ingredient>
      </Medication>
    </resource>
  </entry>
  <entry>
    <fullUrl value="urn:uuid:de131e15-ed13-4b31-b38c-3204a84d99c4"/>
    <resource>
      <Medication>
        <id value="gravitate-maria-medication-2"/>
        <text>
          <status value="generated"/><div xmlns="http://www.w3.org/1999/xhtml"><p><b>Generated Narrative</b></p><p><b>code</b>: <span title="Codes: {http://spor.ema.europa.eu/v2/marketing-authorisation-numbers EMEA/H/C/000142}, {http://www.whocc.no/atc C09DA04}">Karvea</span></p><p><b>form</b>: <span title="Codes: {http://standardterms.edqm.eu 10219000}">Tablet</span></p><h3>Ingredients</h3><table class="grid"><tr><td>-</td><td><b>Item[x]</b></td><td><b>Strength</b></td></tr><tr><td>*</td><td><span title="Codes: {http://fdasis.nlm.nih.gov J0E2756Z7N}">irbesartan</span></td><td>75 mg/1 Tablet</td></tr></table></div>
        </text>
        <code>
          <coding>
            <system value="http://spor.ema.europa.eu/v2/marketing-authorisation-numbers"/>
            <code value="EMEA/H/C/000142"/>
            <display value="Karvea"/>
          </coding>
          <coding>
            <system value="http://www.whocc.no/atc"/>
            <code value="C09DA04"/>
            <display value="irbesartan and diuretics"/>
          </coding>
        </code>
        <form>
          <coding>
            <system value="http://standardterms.edqm.eu"/>
            <code value="10219000"/>
            <display value="Tablet"/>
          </coding>
        </form>
        <ingredient>
          <itemCodeableConcept>
            <coding>
              <system value="http://fdasis.nlm.nih.gov"/>
              <code value="J0E2756Z7N"/>
              <display value="irbesartan"/>
            </coding>
            <text value="irbesartan"/>
          </itemCodeableConcept>
          <strength>
            <numerator>
              <value value="75"/>
              <unit value="mg"/>
              <system value="http://unitsofmeasure.org"/>
              <code value="mg"/>
            </numerator>
            <denominator>
              <value value="1"/>
              <unit value="Tablet"/>
              <system value="http://unitsofmeasure.org"/>
              <code value="{tablet}"/>
            </denominator>
          </strength>
        </ingredient>
      </Medication>
    </resource>
  </entry>
  <entry>
    <fullUrl value="urn:uuid:9ac3356c-4ea4-4814-84c3-235484f2ef19"/>
    <resource>
      <Medication>
        <id value="gravitate-maria-medication-3"/>
        <text>
          <status value="generated"/><div xmlns="http://www.w3.org/1999/xhtml"><p><b>Generated Narrative</b></p><p><b>code</b>: <span title="Codes: {https://www.gravitatehealth.eu/sid/man 16028/0049}, {http://www.whocc.no/atc R01AA05}">Boots Decongestant 0.05% w/v Nasal spray</span></p><p><b>form</b>: <span title="Codes: ">Spray (unspecified)</span></p><h3>Ingredients</h3><table class="grid"><tr><td>-</td><td><b>Item[x]</b></td><td><b>Strength</b></td></tr><tr><td>*</td><td><span title="Codes: {http://fdasis.nlm.nih.gov K89MJ0S5VY}">oxymetazoline hydrochloride</span></td><td>0.05 mg/1 ml</td></tr></table></div>
        </text>
        <code>
          <coding>
            <system value="https://www.gravitatehealth.eu/sid/man"/>
            <code value="16028/0049"/>
            <display value="Boots Decongestant 0.05% w/v Nasal spray"/>
          </coding>
          <coding>
            <system value="http://www.whocc.no/atc"/>
            <code value="R01AA05"/>
            <display value="oxymetazoline"/>
          </coding>
        </code>
        <form>
          <text value="Spray (unspecified)"/>
        </form>
        <ingredient>
          <itemCodeableConcept>
            <coding>
              <system value="http://fdasis.nlm.nih.gov"/>
              <code value="K89MJ0S5VY"/>
              <display value="oxymetazoline hydrochloride"/>
            </coding>
            <text value="oxymetazoline hydrochloride"/>
          </itemCodeableConcept>
          <strength>
            <numerator>
              <value value="0.05"/>
              <unit value="mg"/>
              <system value="http://unitsofmeasure.org"/>
              <code value="mg"/>
            </numerator>
            <denominator>
              <value value="1"/>
              <unit value="ml"/>
              <system value="http://unitsofmeasure.org"/>
              <code value="ml"/>
            </denominator>
          </strength>
        </ingredient>
      </Medication>
    </resource>
  </entry>
</Bundle>