<?xml version="1.0" encoding="UTF-8"?>

<Bundle xmlns="http://hl7.org/fhir">
  <id value="cfsb9078061117831"/>
  <identifier>
    <system value="https://www.gravitatehealth.eu/sid/doc"/>
    <value value="EU/1/16/1157/002"/>
  </identifier>
  <type value="document"/>
  <timestamp value="2017-06-23T08:38:00+02:00"/>
  <entry>
    <resource>
      <Composition>
        <id value="cfsb5419150199436"/>
        <language value="no"/>
        <text>
          <status value="generated"/><div xmlns="http://www.w3.org/1999/xhtml" xml:lang="no" lang="no"><p><b>Generated Narrative</b></p><div style="display: inline-block; background-color: #d9e0e7; padding: 6px; margin: 4px; border: 1px solid #8da1b4; border-radius: 5px; line-height: 60%"><p style="margin-bottom: 0px">Resource "cfsb5419150199436"  (Language "no") </p></div><p><b>status</b>: final</p><p><b>type</b>: Package Leaflet <span style="background: LightGoldenRodYellow; margin: 4px; border: 1px solid khaki"> (#100000155538)</span></p><p><b>date</b>: 2015-02-07T13:28:17Z</p><p><b>author</b>: <a href="#Organization_cfsb6005885654359">See above (Organization/cfsb6005885654359)</a></p><p><b>title</b>: TEST PURPOSES ONLY - Suliqua Vulcan ePI</p><p><b>confidentiality</b>: unrestricted</p></div>
        </text>
        <status value="final"/>
        <type>
          <coding>
            <system value="https://spor.ema.europa.eu/"/>
            <code value="100000155538"/>
          </coding>
          <text value="Package Leaflet"/>
        </type>
        <date value="2015-02-07T13:28:17Z"/>
        <author>
          <reference value="Organization/cfsb6005885654359"/>
        </author>
        <title value="TEST PURPOSES ONLY - Suliqua Vulcan ePI"/>
        <confidentiality value="unrestricted"/>
        <section>
          <title value="B. PAKNINGSVEDLEGG"/>
          <code>
            <coding>
              <system value="https://spor.ema.europa.eu/"/>
              <code value="100000155538"/>
            </coding>
            <text value="B. PAKNINGSVEDLEGG"/>
          </code>
          <text>
            <status value="additional"/><div xmlns="http://www.w3.org/1999/xhtml"><h1>Pakningsvedlegg: Informasjon til brukeren</h1></div>
          </text>
        </section>
        <section>
          <title value="1. Hva Suliqua er og hva det brukes mot"/>
          <code>
            <coding>
              <system value="https://spor.ema.europa.eu/"/>
              <code value="100000155538-1"/>
            </coding>
            <text value="B. PAKNINGSVEDLEGG"/>
          </code>
          <text>
            <status value="additional"/><div xmlns="http://www.w3.org/1999/xhtml"><span>1. Hva Suliqua er og hva det brukes mot</span><div class="avsnitt">Suliqua er et diabeteslegemiddel til injeksjon som inneholder to aktive stoffer:<ul><li><div class="avsnitt">insulin glargin: et langtidsvirkende insulin som hjelper til å kontrollere blodsukkeret (glukose) hele døgnet.</div></li><li><div class="avsnitt">lixisenatid: en “GLP-1-analog” som hjelper kroppen med å øke sin egen insulinutskillelse ved økninger i blodsukkeret, samt forsinker opptak av sukker fra maten</div></li></ul></div><div class="avsnitt">Suliqua brukes til å behandle voksne med type 2-diabetes, for å hjelpe å kontrollere blodsukkernivåer når de er for høye. Det gis sammen med metformin, når andre legemidler alene ikke klarer å kontrollere blodsukkeret ditt.</div><div class="avsnitt">Dersom du bruker andre diabetesmedisiner må du diskutere med legen din om du skal slutte med det legemidlet når du starter med Suliqua.</div></div>
          </text>
        </section>
        <section>
          <title value="2. Hva du må vite før du bruker Suliqua"/>
          <code>
            <coding>
              <system value="https://spor.ema.europa.eu/"/>
              <code value="100000155538-2"/>
            </coding>
            <text value="B. PAKNINGSVEDLEGG"/>
          </code>
          <text>
            <status value="additional"/><div xmlns="http://www.w3.org/1999/xhtml"><span>2. Hva du må vite før du bruker Suliqua</span><div class="pil-kontraindikasjon seksjon"><span class="tittel">Bruk ikke Suliqua:</span><div class="avsnitt"><ul><li><div class="avsnitt">dersom du er allergisk overfor insulin glargin eller lixisenatid eller noen av de andre innholdsstoffene i dette legemidlet (listet opp i avsnitt 6).</div></li></ul></div></div><div class="pil-advarsel seksjon"><span class="tittel">Advarsler og forsiktighetsregler</span><div class="avsnitt">Rådfør deg med lege, apotek eller sykepleier før du bruker Suliqua dersom:<ul><li><div class="avsnitt">du har type 1-diabetes, da Suliqua brukes i behandling av type 2-diabetes og denne medisinen ikke vil være den rette for deg.</div></li><li><div class="avsnitt">du har diabetisk ketoacidose (en diabeteskomplikasjon som oppstår når kroppen ikke kan bryte ned glukose på grunn av insulinmangel) da dette legemidlet ikke vil være det rette for deg.</div></li><li><div class="avsnitt">du har et alvorlig mage-/tarmproblem, som for eksempel en sykdom i magemusklene som heter “gastroparese” og som fører til forsinket tømming av magen. Fordi Suliqua kan forårsake magebivirkninger er ikke medisinen undersøkt hos pasienter med alvorlige mage-/tarmproblemer. Vennligst les informasjonen vedrørende medisiner som ikke skal ligge for lenge i magen din i avsnittet «<b>Andre legemidler og Suliqua</b>».</div></li><li><div class="avsnitt">du har alvorlig nyresykdom eller du er dialysepasient. Bruk av dette legemidlet er ikke anbefalt.</div></li></ul></div><div class="avsnitt">Følg din leges instruksjoner nøye når det gjelder dosering, kontroll av blod og urin, kosthold og fysisk aktivitet (fysisk arbeid og trening) og injeksjonsteknikk.</div><div class="avsnitt"><u>Vær spesielt oppmerksom på følgende:</u><ul><li><div class="avsnitt">For lavt blodsukker (hypoglykemi). Dersom blodsukkeret ditt er for lavt, følg veiledningen for hypoglykemi (se informasjonen i boksen i slutten av dette pakningsvedlegget).</div></li><li><div class="avsnitt">For høyt blodsukker (hyperglykemi). Dersom blodsukkeret ditt er for høyt, følg veiledningen for hyperglykemi (se informasjonen i boksen i slutten av dette pakningsvedlegget).</div></li><li><div class="avsnitt">Forsikre deg om at du bruker riktig medisin. Du må alltid sjekke etiketten før hver injeksjon for å unngå forveksling mellom Suliqua og andre insulintyper.</div></li><li><div class="avsnitt">Dersom du er svaksynt, vennligst se avsnitt 3.</div></li></ul></div><div class="avsnitt"><u>Mens du bruker denne medisinen må du være oppmerksom på følgende og snakk med lege, apotek</u> <u>eller sykepleier før du bruker Suliqua:</u><ul><li><div class="avsnitt">alvorlige smerter i mageregionen (abdomen) som ikke blir bedre. Dette kan være et tegn på betennelse i bukspyttkjertelen (akutt pankreatitt).</div></li><li><div class="avsnitt">væsketap fra kroppen din (dehydrering), for eksempel ved oppkast og diaré. Det er viktig å unngå dehydrering ved å drikke rikelig med væske, spesielt under de første ukene av behandling med Suliqua.</div></li></ul></div><div class="avsnitt"><u>Hudforandringer på injeksjonsstedet</u><br/>Injeksjonsstedet bør roteres for å forebygge hudforandringer som for eksempel kuler under huden. Det kan hende at insulinet ikke virker så godt hvis du injiserer det på et klumpete sted på huden (se Hvordan bruke Suliqua). Hvis du pleier å injisere på et klumpete område og vil endre injeksjonssted til et annet område, må du ta kontakt med legen din først. Legen din kan gi deg beskjed om å kontrollere blodsukkeret ditt mer nøye og å justere dosen på insulinet ditt eller andre legemidler du bruker mot diabetes.</div><div class="avsnitt"><u>Reiser</u><br/>Rådfør deg med legen din før du skal ut og reise. Det kan være nødvendig å ta opp:<ul><li><div class="avsnitt">Tilgjengeligheten av din type medisin i det landet du besøker.</div></li><li><div class="avsnitt">Forsyninger av medisinen din, sprøyter osv.</div></li><li><div class="avsnitt">Riktig oppbevaring av medisinen under reisen.</div></li><li><div class="avsnitt">Tidspunkt for måltider og medisinering under reisen.</div></li><li><div class="avsnitt">Eventuelle følger av å krysse tidssoner.</div></li><li><div class="avsnitt">Eventuelle nye helsefarer i de land du besøker.</div></li><li><div class="avsnitt">Hva du skal gjøre i nødsituasjoner dersom du føler deg uvel eller blir syk.</div></li></ul></div></div><div class="pil-barn-unge seksjon"><span class="tittel">Barn og ungdom</span><div class="avsnitt">Det er ikke erfaring med bruk av Suliqua hos barn og ungdom under 18 år. Suliqua anbefales derfor ikke brukt i denne aldersgruppen.</div></div><div class="pil-interaksjon seksjon"><span class="tittel">Andre legemidler og Suliqua</span><div class="avsnitt">Rådfør deg med lege eller apotek dersom du bruker, nylig har brukt eller planlegger å bruke andre legemidler.</div><div class="avsnitt">Enkelte legemidler kan forårsake en endring i blodsukkernivået ditt. Dette kan bety at Suliqua-dosen må endres. Før du begynner å ta et legemiddel må du derfor spørre legen din om det vil påvirke blodsukkeret ditt og hva du eventuelt må gjøre. Vær også oppmerksom når du skal slutte å ta et annet legemiddel.</div><div class="avsnitt">Effekten av enkelte legemidler som svelges, kan påvirkes av Suliqua. Det kan være nødvendig å ta enkelte legemidler, som for eksempel antibiotika, p-piller, statiner (medisiner som atorvastatin som senker kolesterolet), magesaftresistente tabletter eller kapsler som ikke bør være for lenge i magen, minst én time før eller fire timer etter Suliqua-injeksjon.</div><div class="avsnitt"><u>Ditt blodsukkernivå kan synke (hypoglykemi) dersom du tar:</u><ul><li><div class="avsnitt">Alle andre medisiner for behandling av diabetes.</div></li><li><div class="avsnitt">Disopyramid, brukes ved visse hjerteproblemer.</div></li><li><div class="avsnitt">Fluoksetin, brukes ved depresjon.</div></li><li><div class="avsnitt">Antibiotika av typen sulfonamider, brukes ved infeksjoner.</div></li><li><div class="avsnitt">Fibrater, brukes for å senke høye nivåer av blodlipider.</div></li><li><div class="avsnitt">Legemidler som hemmer enzymet monoaminoksidase (MAO), brukes ved depresjon eller Parkinsons sykdom.</div></li><li><div class="avsnitt">Legemidler som hemmer angiotensinkonverterende enzym (ACE), brukes ved visse hjerteproblemer eller høyt blodtrykk.</div></li><li><div class="avsnitt">Smertestillende og febernedsettende, som pentoksyfyllin, propoksyfen, salisylater (for eksempel acetylsalisylsyre).</div></li><li><div class="avsnitt">Pentamidin, mot visse parasittinfeksjoner. Dette kan forårsake for lave blodsukkernivåer som noen ganger etterfølges av for høye blodsukkernivåer.</div></li></ul></div><div class="avsnitt"><u>Ditt blodsukkernivå kan øke (hyperglykemi) dersom du tar:</u><ul><li><div class="avsnitt">Kortikosteroider som kortison og prednisolon, brukes ved betennelsestilstander.</div></li><li><div class="avsnitt">Danazol, brukes ved endometriose.</div></li><li><div class="avsnitt">Diazoksid, brukes ved høyt blodtrykk.</div></li><li><div class="avsnitt">Proteasehemmere, brukes ved HIV.</div></li><li><div class="avsnitt">Vanndrivende, brukes ved høyt blodtrykk eller væske i kroppen.</div></li><li><div class="avsnitt">Glukagon, brukes ved veldig lavt blodsukker.</div></li><li><div class="avsnitt">Isoniazid, brukes ved tuberkulose.</div></li><li><div class="avsnitt">Somatropin, et veksthormon.</div></li><li><div class="avsnitt">Thyreoideahormoner, brukes ved sykdom i skjoldbruskkjertelen.</div></li><li><div class="avsnitt">Østrogener og progesteroner, for eksempel i p-piller brukt som prevensjon eller østrogener mot benskjørhet (osteoporose).</div></li><li><div class="avsnitt">Klozapin, olanzapin og fenotiazinderivater, brukes ved psykiatriske lidelser.</div></li><li><div class="avsnitt">Såkalte sympatomimetika, som adrenalin, salbutamol og terbutalin, brukes ved astma.</div></li></ul></div><div class="avsnitt"><u>Blodsukkernivået kan enten synke eller øke hvis du tar:</u><ul><li><div class="avsnitt">Betablokkere eller klonidin, brukes ved høyt blodtrykk.</div></li><li><div class="avsnitt">Litiumsalter, brukes ved psykiatriske lidelser.</div></li></ul></div><div class="avsnitt"><u>Medisiner som kan redusere varselssymptomer på lavt blodsukker</u><br/>Betablokkere og noen andre legemidler (for eksempel klonidin, guanetidin og reserpin mot høyt blodtrykk) kan gjøre det vanskeligere å gjenkjenne varselsymptomene ved for lavt blodsukker (hypoglykemi). Det kan til og med skjule eller hemme de første symptomene på at ditt blodsukker er for lavt.</div><div class="avsnitt">Dersom noe av det over gjelder deg (eller du ikke er sikker), snakk med legen din, apotek eller sykepleier før du bruker denne medisinen.</div><div class="avsnitt"><u>Warfarin og andre blodfortynnende (antikoagulantia)</u><br/>Gi beskjed til legen din dersom du bruker warfarin eller andre antikoagulantia (medisiner som brukes for å forebygge blodpropp) fordi du kanskje må ta hyppigere blodprøver (disse heter ‘International Normalised Ratio’ eller INR-test) for å sjekke din blodlevring (koagulering).</div></div><div class="pil-mat-drikke seksjon"><span class="tittel">Suliqua sammen med alkohol</span><div class="avsnitt">Blodsukkernivået ditt kan enten øke eller synke hvis du drikker alkohol. Du bør kontrollere blodsukkeret ditt oftere.</div></div><div class="pil-graviditet-amming-fertilitet seksjon"><span class="tittel">Graviditet og amming</span><div class="avsnitt">Suliqua skal ikke brukes under graviditet. Det er ikke kjent om Suliqua kan skade ditt ufødte barn. Suliqua skal ikke brukes under amming. Det er ikke kjent om Suliqua går over i morsmelk.</div><div class="avsnitt">Rådfør deg med lege eller apotek før du tar dette legemidlet dersom du er gravid eller ammer, tror at du kan være gravid eller planlegger å bli gravid.</div></div><div class="pil-bil-maskiner seksjon"><span class="tittel">Kjøring og bruk av maskiner</span><div class="avsnitt">For lavt eller for høyt blodsukker (se informasjonen i boksen i slutten av dette pakningsvedlegget) kan påvirke din evne til å kjøre bil eller bruke maskiner. Konsentrasjonen din kan påvirkes. Dette kan være farlig for deg selv og andre.</div><div class="avsnitt">Spør legen din om du kan kjøre dersom:<ul><li><div class="avsnitt">Blodsukkeret ditt ofte er for lavt.</div></li><li><div class="avsnitt">Du synes det er vanskelig å kjenne når blodsukkeret ditt er for lavt.</div></li></ul></div></div><div class="pil-innholdsstoffer seksjon"><span class="tittel">Viktig informasjon om noen av ingrediensene i Suliqua</span><div class="avsnitt">Dette legemiddelet inneholder mindre enn 1 mmol (23 mg) natrium per dose, dvs. så godt som<br/>«natriumfritt».<br/>Dette legemidlet inneholder metakresol som kan forårsake allergiske reaksjoner.</div></div></div>
          </text>
        </section>
        <section>
          <title value="3. Hvordan du bruker Suliqua"/>
          <code>
            <coding>
              <system value="https://spor.ema.europa.eu/"/>
              <code value="100000155538-3"/>
            </coding>
            <text value="B. PAKNINGSVEDLEGG"/>
          </code>
          <text>
            <status value="additional"/><div xmlns="http://www.w3.org/1999/xhtml"><span>3. Hvordan du bruker Suliqua</span><div class="avsnitt">Bruk alltid dette legemidlet nøyaktig slik legen din har fortalt deg. Legen din kan be deg bruke en annen dose av Suliqua sammenlignet med din tidligere insulindose. Kontakt lege, apotek eller sykepleier hvis du er usikker.</div><div class="avsnitt">Basert på din livsstil, dine blodsukkertester og din tidligere insulinbruk, vil legen din gi deg beskjed om:<ul><li><div class="avsnitt">Hvor mye Suliqua du trenger hver dag og til hvilket tidspunkt.</div></li><li><div class="avsnitt">Når du skal kontrollere blodsukkeret ditt og om du må kontrollere urinen.</div></li><li><div class="avsnitt">Når du kan trenge en høyere eller lavere dose.</div></li></ul></div><div class="avsnitt">Legen din kan gi deg beskjed om å bruke Suliqua med andre legemidler mot for høyt blodsukker.</div><span class="flytende-tittel">Hvor mye du skal bruke</span><div class="avsnitt">Suliqua 100 enheter/ml + 50 mikrogram/ml ferdigfylt penn:<ul><li><div class="avsnitt">Denne pennen leverer en dose på 10 til 40 dosetrinn i en injeksjon, i steg på 1 dosetrinn.</div></li><li><div class="avsnitt">Hvert dosetrinn Suliqua du stiller inn inneholder 1 enhet insulin glargin og 0,5 mikrogram lixisenatid.</div></li></ul></div><div class="avsnitt">Din Suliqua-dose gis som “dosetrinn”. Dosevinduet på pennen viser antall dosetrinn.</div><div class="avsnitt">Injiser ikke en lavere dose enn 10 dosetrinn. Injiser ikke en høyere dose enn 40 dosetrinn. Dersom det er behov for en dose høyere enn 40 dosetrinn, vil legen din forskrive en annen styrke. For dosetrinn fra 30-60 enheter, er Suliqua 100 enheter/ml + 33 mikrogram ferdigfylt penn (Suliqua 30-60 penn) tilgjengelig.</div><div class="avsnitt">Mange faktorer påvirker blodsukkeret ditt. Du bør vite hva disse er slik at du kan ta riktige grep dersom blodsukkeret ditt endrer seg, slik at du hindrer at det blir for høyt eller for lavt. Se boksen sist i dette pakningsvedlegget for mer informasjon.</div><span class="flytende-tittel">Bruk hos eldre pasienter (65 år og eldre)</span><div class="avsnitt">Dersom du er 65 år eller eldre må du snakke med legen din fordi du kan ha behov for en lavere dose.</div><span class="flytende-tittel">Dersom du har nyre- eller leverproblemer</span><div class="avsnitt">Dersom du har nyre- eller leverproblemer må du snakke med legen din fordi du kan ha behov for en lavere dose.</div><span class="flytende-tittel">Når du skal injisere Suliqua</span><div class="avsnitt">Suliqua injiseres én gang daglig, i løpet av timen før et måltid. Det anbefales at Suliqua injiseres før det samme måltidet hver dag, når det mest passende måltidet er valgt.</div><span class="flytende-tittel">Før du injiserer Suliqua</span><div class="avsnitt"><ul><li><div class="avsnitt">Følg alltid “Bruksanvisning” som følger med dette pakningsvedlegget.</div></li><li><div class="avsnitt">Dersom du ikke følger disse instruksjonene kan du få for mye eller for lite Suliqua.</div></li></ul></div><div class="avsnitt">For å unngå feilmedisinering må du alltid kontrollere medisinpakken og etiketten på pennen før hver injeksjon for å sikre at du har rett penn, særlig dersom du injiserer mer enn ett legemiddel. Rådfør deg med lege eller apotek hvis du er usikker.</div><span class="flytende-tittel">Annen viktig informasjon vedrørende bruk av de ferdigfylte pennene</span><div class="avsnitt"><ul><li><div class="avsnitt">Bruk alltid en ny kanyle til hver injeksjon. Gjenbruk av kanylene øker risikoen for tilstoppet kanyle, som igjen kan føre til for lav eller for høy dose. Kast kanylen på en sikker måte etter bruk.</div></li><li><div class="avsnitt">For å unngå at infeksjon smitter fra en person til en annen skal insulinpenner aldri brukes av mer enn én person, selv om kanylen byttes.</div></li><li><div class="avsnitt">Bruk bare kanyler som er beregnet for bruk med Suliqua-pennen (se «Bruksanvisning»).</div></li><li><div class="avsnitt">En sikkerhetstest må gjennomføres før hver injeksjon.</div></li><li><div class="avsnitt">Bruk ikke pennen dersom du tror den er ødelagt. Skaff en ny penn. Forsøk ikke å reparere pennen.</div></li><li><div class="avsnitt">Kast brukte kanyler i en beholder for skarpe gjenstander, eller som lege, apotek eller sykepleier har fortalt deg.</div></li></ul></div><span class="flytende-tittel">Hvordan du skal injisere</span><div class="avsnitt"><ul><li><div class="avsnitt">Suliqua injiseres under huden (subkutan bruk eller “s.c.”).</div></li><li><div class="avsnitt">Sett injeksjonen på forsiden av låret, overarmer eller i magen.</div></li><li><div class="avsnitt">Bytt injeksjonssted hver dag innen det området du setter injeksjonen. Dette reduserer risikoen for å utvikle søkk eller klumper på injeksjonsstedet (for mer informasjon, se “Andre bivirkninger” i avsnitt 4).</div></li></ul></div><span class="flytende-tittel">Injiser ikke Suliqua:</span><div class="avsnitt"><ul><li><div class="avsnitt">i en blodåre. Dette endrer måten den virker på og kan føre til for lavt blodsukker.</div></li><li><div class="avsnitt">dersom det er partikler i Suliqua. Oppløsningen skal være klar, fargeløs og vannaktig.</div></li></ul></div><div class="avsnitt">For å unngå doseringsfeil og mulig overdose skal du aldri bruke en kanyle til å trekke opp oppløsning fra pennen.</div><div class="avsnitt">Dersom pennen er skadet, ikke er oppbevart korrekt, eller dersom du ikke er sikker på at den fungerer som den skal eller du merker at blodsukkeret ditt på uventet vis blir vanskeligere å kontrollere:<ul><li><div class="avsnitt">kast pennen og bruk en ny.</div></li><li><div class="avsnitt">rådfør deg med legen, apotek eller sykepleier dersom du tror det er noe galt med pennen din.</div></li></ul></div><div class="pil-overdosering seksjon"><span class="tittel">Dersom du tar for mye av Suliqua</span><div class="avsnitt">Dersom du har injisert for mye av denne medisinen kan blodsukkeret ditt bli for lavt (hypoglykemi). Kontroller blodsukkeret ditt og spis mer mat for å forhindre at blodsukkeret ditt blir for lavt (hypoglykemi). Dersom blodsukkeret blir for lavt, se råd i boksen i slutten av dette pakningsvedlegget.</div></div><div class="pil-glemt-dose seksjon" id="pil-glemt-dose"><span class="tittel">Dersom du har glemt å ta Suliqua</span><div class="avsnitt">Dersom du glemmer en dose Suliqua eller du ikke har injisert nok insulin kan blodsukkeret ditt bli for høyt (hyperglykemi):<br/>Ved behov kan Suliqua injiseres før neste måltid.<ul><li><div class="avsnitt">Injiser ikke en dobbel dose som erstatning for en glemt dose.</div></li><li><div class="avsnitt">Sett ikke to injeksjoner samme dag.</div></li><li><div class="avsnitt">Kontroller blodsukkeret ditt, og injiser så neste dose ved vanlig tidspunkt.</div></li><li><div class="avsnitt">For informasjon vedrørende behandling av hyperglykemi, se boksen på slutten av dette pakningsvedlegget.</div></li></ul></div></div><div class="pil-seponering seksjon" id="pil-seponering"><span class="tittel">Dersom du avbryter behandling med Suliqua</span><div class="avsnitt">Ikke slutt å bruke Suliqua uten å snakke med legen. Dersom du slutter å bruke Suliqua, kan det føre til veldig høyt blodsukker (hyperglykemi) og en opphopning av syre i blodet (ketoacidose).</div><div class="avsnitt">Spør lege, apotek eller sykepleier dersom du har noen spørsmål om bruken av dette legemidlet.</div></div></div>
          </text>
        </section>
        <section>
          <title value="4. Mulige bivirkninger"/>
          <code>
            <coding>
              <system value="https://spor.ema.europa.eu/"/>
              <code value="100000155538-4"/>
            </coding>
            <text value="B. PAKNINGSVEDLEGG"/>
          </code>
          <text>
            <status value="additional"/><div xmlns="http://www.w3.org/1999/xhtml"><span>4. Mulige bivirkninger</span><div class="avsnitt">Som alle legemidler kan dette legemidlet forårsake bivirkninger, men ikke alle får det.</div><div class="avsnitt"><b>Dersom du opplever tegn på at blodsukkeret ditt er for lavt (hypoglykemi)</b>, ta grep for å øke blodsukkeret ditt umiddelbart (se boksen i slutten av dette pakningsvedlegget).<br/>Hypoglykemi kan være veldig alvorlig og er veldig vanlig med medisiner som inneholder insulin (kan oppstå hos opptil 1 av 10 personer).<br/>Lavt blodsukker betyr at det ikke er nok sukker i blodet ditt.<br/>Dersom blodsukkeret ditt blir for lavt kan du besvime (bli bevisstløs).<br/>Dersom blodsukkeret ditt forblir veldig lavt for lenge kan det føre til hjerneskade og kan være livstruende. For mer informasjon, se boksen i slutten av dette pakningsvedlegget.</div><span class="flytende-tittel">Andre bivirkninger</span><div class="avsnitt">Fortell legen din, apotek eller sykepleier dersom du opplever noen av de følgende bivirkningene:<ul><li><div class="avsnitt"><b>Hudforandringer hvor injeksjonen settes:</b><br/>Hvis du injiserer insulinet for ofte på samme sted, kan huden enten skrumpe inn (lipoatrofi) eller bli tykkere (lipohypertrofi). Opphopning av et protein kalt amyloid kan også forårsake kuler under huden (kutan amyloidose; det er ikke kjent hvor ofte dette forekommer). Det kan hende at insulinet ikke virker så godt hvis du injiserer det i et klumpete område. Bytt injeksjonssted for hver injeksjon for å bidra til å forebygge disse hudforandringene.</div></li></ul></div><div class="avsnitt"><b>Vanlige bivirkninger: </b>kan oppstå hos opptil 1 av 10 personer<ul><li><div class="avsnitt">Svimmelhet</div></li><li><div class="avsnitt">Kvalme</div></li><li><div class="avsnitt">Oppkast</div></li><li><div class="avsnitt">Diaré</div></li><li><div class="avsnitt">Hud- og allergiske reaksjoner på injeksjonsstedet: Tegnene kan inkludere rødhet, uvanlig sterk smerte under injeksjonen, kløe, elveblest, hevelse eller betennelse. Dette kan spre seg rundt injeksjonsstedet. De fleste mindre reaksjoner mot insuliner forsvinner vanligvis innen noen dager til noen uker.</div></li></ul></div><div class="avsnitt"><b>Mindre vanlige bivirkninger</b>: kan oppstå hos opptil 1 av 100 personer<ul><li><div class="avsnitt">Forkjølelse, rennende nese, vond hals</div></li><li><div class="avsnitt">Elveblest (urtikaria)</div></li><li><div class="avsnitt">Hodepine</div></li><li><div class="avsnitt">Fordøyelsesbesvær (dyspepsi)</div></li><li><div class="avsnitt">Vondt i magen</div></li><li><div class="avsnitt">Tretthet (fatigue)</div></li></ul></div><div class="pil-melding seksjon"><span class="tittel">Melding av bivirkninger</span><div class="avsnitt">Kontakt lege, apotek eller sykepleier dersom du opplever bivirkninger, inkludert mulige bivirkninger som ikke er nevnt i dette pakningsvedlegget. Du kan også melde fra om bivirkninger direkte via meldeskjema som finnes på nettsiden til Statens legemiddelverk: <a href="https://www.legemiddelverket.no/pasientmelding" target="_blank" title="www.legemiddelverket.no/pasientmelding">www.legemiddelverket.no/pasientmelding</a>. Ved å melde fra om bivirkninger bidrar du med informasjon om sikkerheten ved bruk av dette legemidlet.</div></div></div>
          </text>
        </section>
        <section>
          <title value="5. Hvordan du oppbevarer Suliqua"/>
          <code>
            <coding>
              <system value="https://spor.ema.europa.eu/"/>
              <code value="100000155538-2"/>
            </coding>
            <text value="B. PAKNINGSVEDLEGG"/>
          </code>
          <text>
            <status value="additional"/><div xmlns="http://www.w3.org/1999/xhtml"><span>5. Hvordan du oppbevarer Suliqua</span><div class="avsnitt">Oppbevares utilgjengelig for barn.</div><div class="avsnitt">Bruk ikke dette legemidlet etter utløpsdatoen som er angitt på penneetiketten og på kartongen etter EXP/Utløpsdato. Utløpsdatoen henviser til den siste dagen i den måneden.</div><span class="flytende-tittel">Før første bruk</span><div class="avsnitt">Oppbevares i kjøleskap (2-8ºC).<br/>Skal ikke fryses. Skal ikke plasseres ved fryseboksen eller en frysepakning. Oppbevares i ytterkartongen for å beskytte mot lys.</div><span class="flytende-tittel">Penner som er i bruk eller medbringes som en reserve</span><div class="avsnitt">Pennen kan oppbevares i høyst 28 dager utenfor kjøleskap, men under 25ºC. Kassér pennen etter denne perioden.<br/>Legg ikke pennen tilbake i kjøleskapet. Skal ikke fryses. Oppbevar pennen beskyttet mot direkte varme eller direkte lys. Når du ikke bruker pennen, skal beskyttelseshetten alltid sitte på for å beskytte mot lys.<br/>Forlat ikke pennen i en bil på en særdeles varm eller kald dag. Skal ikke oppbevares med kanylen påsatt.</div><div class="avsnitt">Legemidler skal ikke kastes i avløpsvann eller sammen med husholdningsavfall. Spør på apoteket hvordan du skal kaste legemidler som du ikke lenger bruker. Disse tiltakene bidrar til å beskytte miljøet.</div></div>
          </text>
        </section>
        <section>
          <title value="6. Innholdet i pakningen og ytterligere informasjon"/>
          <code>
            <coding>
              <system value="https://spor.ema.europa.eu/"/>
              <code value="100000155538-2"/>
            </coding>
            <text value="B. PAKNINGSVEDLEGG"/>
          </code>
          <text>
            <status value="additional"/><div xmlns="http://www.w3.org/1999/xhtml"><span>6. Innholdet i pakningen og ytterligere informasjon</span></div>
          </text>
        </section>
      </Composition>
    </resource>
  </entry>
  <entry>
    <resource>
      <Organization>
        <id value="cfsb6005885654359"/>
        <text>
          <status value="generated"/><div xmlns="http://www.w3.org/1999/xhtml"><p><b>Generated Narrative</b></p><div style="display: inline-block; background-color: #d9e0e7; padding: 6px; margin: 4px; border: 1px solid #8da1b4; border-radius: 5px; line-height: 60%"><p style="margin-bottom: 0px">Resource "cfsb6005885654359" </p></div><p><b>identifier</b>: id: ORG-100000789 (OFFICIAL)</p><p><b>active</b>: true</p><p><b>type</b>: Marketing authorisation holder <span style="background: LightGoldenRodYellow; margin: 4px; border: 1px solid khaki"> (#/#bus)</span></p><p><b>name</b>: Sanofi-Aventis Groupe</p><p><b>address</b>: 54 Rue La Boetie  Paris  75008  France(WORK)</p></div>
        </text>
        <identifier>
          <use value="official"/>
          <system value="https://spor.ema.europa.eu/rmswi/#/"/>
          <value value="ORG-100000789"/>
        </identifier>
        <active value="true"/>
        <type>
          <coding>
            <system value="https://spor.ema.europa.eu/rmswi/"/>
            <code value="/#bus"/>
          </coding>
          <text value="Marketing authorisation holder"/>
        </type>
        <name value="Sanofi-Aventis Groupe"/>
        <address>
          <use value="work"/>
          <type value="physical"/>
          <text value="54 Rue La Boetie  Paris  75008  France"/>
          <line value="54 Rue La Boetie"/>
          <city value="Paris"/>
          <country value="fr"/>
        </address>
      </Organization>
    </resource>
  </entry>
  <entry>
    <resource>
      <Organization>
        <id value="cfsb2176224411725"/>
        <text>
          <status value="generated"/><div xmlns="http://www.w3.org/1999/xhtml"><p><b>Generated Narrative</b></p><div style="display: inline-block; background-color: #d9e0e7; padding: 6px; margin: 4px; border: 1px solid #8da1b4; border-radius: 5px; line-height: 60%"><p style="margin-bottom: 0px">Resource "cfsb2176224411725" </p></div><p><b>identifier</b>: id: ORG-100001175 (OFFICIAL)</p><p><b>active</b>: true</p><p><b>type</b>: Manufacturer API <span style="background: LightGoldenRodYellow; margin: 4px; border: 1px solid khaki"> (#/#220000000033)</span></p><p><b>name</b>: Sanofi-Aventis Deutschland GmbH</p><p><b>address</b>: Brueningstrasse 50, Industriepark Höchst, 65926 Frankfurt am Main, GERMANY(WORK)</p></div>
        </text>
        <identifier>
          <use value="official"/>
          <system value="https://spor.ema.europa.eu/omswi/#/"/>
          <value value="ORG-100001175"/>
        </identifier>
        <active value="true"/>
        <type>
          <coding>
            <system value="https://spor.ema.europa.eu/rmswi/"/>
            <code value="/#220000000033"/>
          </coding>
          <text value="Manufacturer API"/>
        </type>
        <name value="Sanofi-Aventis Deutschland GmbH"/>
        <address>
          <use value="work"/>
          <type value="physical"/>
          <text value="Brueningstrasse 50, Industriepark Höchst, 65926 Frankfurt am Main, GERMANY"/>
          <line value="Brueningstrasse 50, Industriepark Höchst"/>
          <city value="Frankfurt am Main"/>
          <postalCode value="65926"/>
          <country value="de"/>
        </address>
      </Organization>
    </resource>
  </entry>
  <entry>
    <resource>
      <Organization>
        <id value="cfsb7719260512249"/>
        <text>
          <status value="generated"/><div xmlns="http://www.w3.org/1999/xhtml"><p><b>Generated Narrative</b></p><div style="display: inline-block; background-color: #d9e0e7; padding: 6px; margin: 4px; border: 1px solid #8da1b4; border-radius: 5px; line-height: 60%"><p style="margin-bottom: 0px">Resource "cfsb7719260512249" </p></div><p><b>identifier</b>: id: ORG-100001175 (OFFICIAL)</p><p><b>active</b>: true</p><p><b>type</b>: Manufacturer Batch release <span style="background: LightGoldenRodYellow; margin: 4px; border: 1px solid khaki"> (#/#220000000033)</span></p><p><b>name</b>: Sanofi-Aventis Deutschland GmbH</p><p><b>address</b>: Brueningstrasse 50, Industriepark Höchst, 65926 Frankfurt am Main, GERMANY(WORK)</p></div>
        </text>
        <identifier>
          <use value="official"/>
          <system value="https://spor.ema.europa.eu/omswi/#/"/>
          <value value="ORG-100001175"/>
        </identifier>
        <active value="true"/>
        <type>
          <coding>
            <system value="https://spor.ema.europa.eu/rmswi/"/>
            <code value="/#220000000033"/>
          </coding>
          <text value="Manufacturer Batch release"/>
        </type>
        <name value="Sanofi-Aventis Deutschland GmbH"/>
        <address>
          <use value="work"/>
          <type value="physical"/>
          <text value="Brueningstrasse 50, Industriepark Höchst, 65926 Frankfurt am Main, GERMANY"/>
          <line value="Brueningstrasse 50, Industriepark Höchst"/>
          <city value="Frankfurt am Main"/>
          <postalCode value="65926"/>
          <country value="de"/>
        </address>
      </Organization>
    </resource>
  </entry>
  <entry>
    <resource>
      <Organization>
        <id value="cfsb1639015880655"/>
        <text>
          <status value="generated"/><div xmlns="http://www.w3.org/1999/xhtml"><p><b>Generated Narrative</b></p><div style="display: inline-block; background-color: #d9e0e7; padding: 6px; margin: 4px; border: 1px solid #8da1b4; border-radius: 5px; line-height: 60%"><p style="margin-bottom: 0px">Resource "cfsb1639015880655" </p></div><p><b>identifier</b>: id: ORG-100013412 (OFFICIAL)</p><p><b>active</b>: true</p><p><b>type</b>: Medicines Regulatory Authority <span style="background: LightGoldenRodYellow; margin: 4px; border: 1px solid khaki"> (#/#220000000033)</span></p><p><b>name</b>: European Medicines Agency</p><p><b>address</b>: Domenico Scarlattilaan 6 1083 HS Amsterdam The Netherlands(WORK)</p></div>
        </text>
        <identifier>
          <use value="official"/>
          <system value="https://spor.ema.europa.eu/omswi/#/"/>
          <value value="ORG-100013412"/>
        </identifier>
        <active value="true"/>
        <type>
          <coding>
            <system value="https://spor.ema.europa.eu/rmswi/"/>
            <code value="/#220000000033"/>
          </coding>
          <text value="Medicines Regulatory Authority"/>
        </type>
        <name value="European Medicines Agency"/>
        <address>
          <use value="work"/>
          <type value="physical"/>
          <text value="Domenico Scarlattilaan 6 1083 HS Amsterdam The Netherlands"/>
          <line value="Carretera De Martorell 41 61, Poligono Industrial Nord-Est"/>
          <city value="Amsterdam"/>
          <postalCode value="1083 HS"/>
          <country value="nl"/>
        </address>
      </Organization>
    </resource>
  </entry>
  <entry>
    <resource>
      <RegulatedAuthorization>
        <id value="cfsb9631820498004"/>
        <text>
          <status value="generated"/><div xmlns="http://www.w3.org/1999/xhtml"><p><b>Generated Narrative</b></p><div style="display: inline-block; background-color: #d9e0e7; padding: 6px; margin: 4px; border: 1px solid #8da1b4; border-radius: 5px; line-height: 60%"><p style="margin-bottom: 0px">Resource "cfsb9631820498004" </p></div><p><b>identifier</b>: id: EU/1/16/1157/002 (OFFICIAL)</p><p><b>subject</b>: <a href="#MedicinalProductDefinition_cfsb1151803027115">See above (MedicinalProductDefinition/cfsb1151803027115)</a></p><p><b>type</b>: Marketing Authorisation <span style="background: LightGoldenRodYellow; margin: 4px; border: 1px solid khaki"> (#/#100000072062)</span></p><p><b>description</b>: Suliqua 100 units/ml + 50 microgram/ml solution for injection in a pre-filled pen</p><p><b>region</b>: European Union <span style="background: LightGoldenRodYellow; margin: 4px; border: 1px solid khaki"> (unknown#eu)</span></p><p><b>status</b>: Active <span style="background: LightGoldenRodYellow; margin: 4px; border: 1px solid khaki"> (<a href="http://build.fhir.org/codesystem-publication-status.html">PublicationStatus</a>#active)</span></p><p><b>statusDate</b>: 2017-01-11T13:28:17Z</p><p><b>validityPeriod</b>: 2017-01-11T13:28:17Z --&gt; (ongoing)</p><p><b>holder</b>: <a href="#Organization_cfsb6005885654359">See above (Organization/cfsb6005885654359)</a></p><p><b>regulator</b>: <a href="#Organization_cfsb1639015880655">See above (Organization/cfsb1639015880655)</a></p></div>
        </text>
        <identifier>
          <use value="official"/>
          <system value="https://spor.ema.europa.eu/rmswi/#/"/>
          <value value="EU/1/16/1157/002"/>
        </identifier>
        <subject>
          <reference value="MedicinalProductDefinition/cfsb1151803027115"/>
        </subject>
        <type>
          <coding>
            <system value="https://spor.ema.europa.eu/rmswi/"/>
            <code value="/#100000072062"/>
          </coding>
          <text value="Marketing Authorisation"/>
        </type>
        <description value="Suliqua 100 units/ml + 50 microgram/ml solution for injection in a pre-filled pen"/>
        <region>
          <coding>
            <system value="urn:iso:std:iso:3166"/>
            <code value="eu"/>
          </coding>
          <text value="European Union"/>
        </region>
        <status>
          <coding>
            <system value="http://hl7.org/fhir/publication-status"/>
            <code value="active"/>
          </coding>
          <text value="Active"/>
        </status>
        <statusDate value="2017-01-11T13:28:17Z"/>
        <validityPeriod>
          <start value="2017-01-11T13:28:17Z"/>
        </validityPeriod>
        <holder>
          <reference value="Organization/cfsb6005885654359"/>
        </holder>
        <regulator>
          <reference value="Organization/cfsb1639015880655"/>
        </regulator>
      </RegulatedAuthorization>
    </resource>
  </entry>
  <entry>
    <resource>
      <MedicinalProductDefinition>
        <id value="cfsb1151803027115"/>
        <text>
          <status value="generated"/><div xmlns="http://www.w3.org/1999/xhtml"><p><b>Generated Narrative</b></p><div style="display: inline-block; background-color: #d9e0e7; padding: 6px; margin: 4px; border: 1px solid #8da1b4; border-radius: 5px; line-height: 60%"><p style="margin-bottom: 0px">Resource "cfsb1151803027115" </p></div><p><b>identifier</b>: id: EU/1/16/1157/002 (OFFICIAL)</p><p><b>type</b>: Marketing Authorisation <span style="background: LightGoldenRodYellow; margin: 4px; border: 1px solid khaki"> (#/#100000072062)</span></p><p><b>domain</b>: Human use <span style="background: LightGoldenRodYellow; margin: 4px; border: 1px solid khaki"> (#/#100000000012)</span></p><p><b>version</b>: 1</p><p><b>status</b>: Active <span style="background: LightGoldenRodYellow; margin: 4px; border: 1px solid khaki"> (<a href="http://build.fhir.org/codesystem-publication-status.html">PublicationStatus</a>#active)</span></p><p><b>statusDate</b>: 2015-02-07T13:28:17Z</p><p><b>description</b>: Suliqua 100 units/ml + 50 microgram/ml solution for injection in a pre-filled pen:
Each pre-filled pen contains 300 units of insulin glargine* and 150 micrograms lixisenatide in 3 ml solution.
Each ml contains 100 units of insulin glargine and 50 micrograms lixisenatide.
Each dose step contains 1 unit of insulin glargine and 0.5 micrograms of lixisenatide</p><p><b>route</b>: Subcutaneous use <span style="background: LightGoldenRodYellow; margin: 4px; border: 1px solid khaki"> (#/#100000073633)</span></p><p><b>indication</b>: Suliqua is indicated for the treatment of adults with insufficiently controlled type 2 diabetes mellitus to improve glycaemic control as an adjunct to diet and exercise in addition to metformin with or without SGLT-2 inhibitors.</p><p><b>legalStatusOfSupply</b>: Medicinal product subject to medical prescription <span style="background: LightGoldenRodYellow; margin: 4px; border: 1px solid khaki"> (#/#100000072084)</span></p><p><b>classification</b>: insulin glargine and lixisenatide <span style="background: LightGoldenRodYellow; margin: 4px; border: 1px solid khaki"> (#A10AE54)</span>, Diabetes mellitus inadequate control <span style="background: LightGoldenRodYellow; margin: 4px; border: 1px solid khaki"> (#/#100000019249)</span></p><blockquote><p><b>name</b></p><p><b>productName</b>: Suliqua 100 units/ml + 50 micrograms/ml solution for injection in a pre-filled pen</p><p><b>type</b>: Full name <span style="background: LightGoldenRodYellow; margin: 4px; border: 1px solid khaki"> (#/#220000000001)</span></p><h3>NameParts</h3><table class="grid"><tr><td>-</td><td><b>Part</b></td><td><b>Type</b></td></tr><tr><td>*</td><td>Solution for injection</td><td>Pharmaceutical dose form part <span style="background: LightGoldenRodYellow; margin: 4px; border: 1px solid khaki"> (#/#220000000005)</span></td></tr></table><h3>CountryLanguages</h3><table class="grid"><tr><td>-</td><td><b>Country</b></td><td><b>Jurisdiction</b></td><td><b>Language</b></td></tr><tr><td>*</td><td>European Union <span style="background: LightGoldenRodYellow; margin: 4px; border: 1px solid khaki"> (unknown#eu)</span></td><td>European Union <span style="background: LightGoldenRodYellow; margin: 4px; border: 1px solid khaki"> (unknown#eu)</span></td><td>English <span style="background: LightGoldenRodYellow; margin: 4px; border: 1px solid khaki"> (<a href="http://terminology.hl7.org/3.0.0/CodeSystem-v3-ietf3066.html">Tags for the Identification of Languages</a>#en)</span></td></tr></table></blockquote></div>
        </text>
        <identifier>
          <use value="official"/>
          <system value="https://spor.ema.europa.eu/pmswi/#/"/>
          <value value="EU/1/16/1157/002"/>
        </identifier>
        <type>
          <coding>
            <system value="https://spor.ema.europa.eu/rmswi/"/>
            <code value="/#100000072062"/>
          </coding>
          <text value="Marketing Authorisation"/>
        </type>
        <domain>
          <coding>
            <system value="https://spor.ema.europa.eu/rmswi/"/>
            <code value="/#100000000012"/>
          </coding>
          <text value="Human use"/>
        </domain>
        <version value="1"/>
        <status>
          <coding>
            <system value="http://hl7.org/fhir/publication-status"/>
            <code value="active"/>
            <display value="Active"/>
          </coding>
        </status>
        <statusDate value="2015-02-07T13:28:17Z"/>
        <description value="Suliqua 100 units/ml + 50 microgram/ml solution for injection in a pre-filled pen:&#xA;Each pre-filled pen contains 300 units of insulin glargine* and 150 micrograms lixisenatide in 3 ml solution.&#xA;Each ml contains 100 units of insulin glargine and 50 micrograms lixisenatide.&#xA;Each dose step contains 1 unit of insulin glargine and 0.5 micrograms of lixisenatide"/>
        <route>
          <coding>
            <system value="https://spor.ema.europa.eu/rmswi/"/>
            <code value="/#100000073633"/>
          </coding>
          <text value="Subcutaneous use"/>
        </route>
        <indication value="Suliqua is indicated for the treatment of adults with insufficiently controlled type 2 diabetes mellitus to improve glycaemic control as an adjunct to diet and exercise in addition to metformin with or without SGLT-2 inhibitors."/>
        <legalStatusOfSupply>
          <coding>
            <system value="https://spor.ema.europa.eu/rmswi/"/>
            <code value="/#100000072084"/>
          </coding>
          <text value="Medicinal product subject to medical prescription"/>
        </legalStatusOfSupply>
        <classification>
          <coding>
            <system value="https://www.whocc.no/atc_ddd_index/"/>
            <code value="A10AE54"/>
          </coding>
          <text value="insulin glargine and lixisenatide"/>
        </classification>
        <classification>
          <coding>
            <system value="https://spor.ema.europa.eu/rmswi/"/>
            <code value="/#100000019249"/>
          </coding>
          <text value="Diabetes mellitus inadequate control"/>
        </classification>
        <name>
          <productName value="Suliqua 100 units/ml + 50 micrograms/ml solution for injection in a pre-filled pen"/>
          <type>
            <coding>
              <system value="https://spor.ema.europa.eu/rmswi/"/>
              <code value="/#220000000001"/>
            </coding>
            <text value="Full name"/>
          </type>
          <namePart>
            <part value="Solution for injection"/>
            <type>
              <coding>
                <system value="https://spor.ema.europa.eu/rmswi/"/>
                <code value="/#220000000005"/>
              </coding>
              <text value="Pharmaceutical dose form part"/>
            </type>
          </namePart>
          <countryLanguage>
            <country>
              <coding>
                <system value="urn:iso:std:iso:3166"/>
                <code value="eu"/>
              </coding>
              <text value="European Union"/>
            </country>
            <jurisdiction>
              <coding>
                <system value="urn:iso:std:iso:3166"/>
                <code value="eu"/>
              </coding>
              <text value="European Union"/>
            </jurisdiction>
            <language>
              <coding>
                <system value="urn:ietf:bcp:47"/>
                <code value="en"/>
              </coding>
              <text value="English"/>
            </language>
          </countryLanguage>
        </name>
      </MedicinalProductDefinition>
    </resource>
  </entry>
  <entry>
    <resource>
      <PackagedProductDefinition>
        <id value="cfsb2900611666086"/>
        <text>
          <status value="generated"/><div xmlns="http://www.w3.org/1999/xhtml"><p><b>Generated Narrative</b></p><div style="display: inline-block; background-color: #d9e0e7; padding: 6px; margin: 4px; border: 1px solid #8da1b4; border-radius: 5px; line-height: 60%"><p style="margin-bottom: 0px">Resource "cfsb2900611666086" </p></div><p><b>identifier</b>: id: EU/1/16/1157/002 (OFFICIAL)</p><p><b>name</b>: 3 ml cartridge (glass) in a pre-filled pen</p><p><b>type</b>: Chemical Medicinal Product <span style="background: LightGoldenRodYellow; margin: 4px; border: 1px solid khaki"> (#/#100000155527)</span></p><p><b>status</b>: Active <span style="background: LightGoldenRodYellow; margin: 4px; border: 1px solid khaki"> (<a href="http://build.fhir.org/codesystem-publication-status.html">PublicationStatus</a>#active)</span></p><p><b>statusDate</b>: 2015-02-07T13:28:17Z</p><p><b>containedItemQuantity</b>: 3 ml</p><p><b>description</b>: Type I colourless glass cartridge with a black plunger (bromobutyl rubber) and a flanged cap (aluminium) with inserted laminated sealing disks (bromobutyl rubber on the medicinal product side and polyisoprene on the outside) containing 3 ml of solution. Each cartridge is assembled into a disposable pen.</p><p><b>copackagedIndicator</b>: false</p><p><b>manufacturer</b>: <a href="#Organization_cfsb2176224411725">See above (Organization/cfsb2176224411725)</a></p><h3>Packages</h3><table class="grid"><tr><td>-</td><td><b>Identifier</b></td><td><b>Type</b></td><td><b>Quantity</b></td><td><b>Material</b></td></tr><tr><td>*</td><td>id: EU/1/16/1157/002 (OFFICIAL)</td><td>Pre-filled pen <span style="background: LightGoldenRodYellow; margin: 4px; border: 1px solid khaki"> (#/#100000073543)</span></td><td>3</td><td>Glass type I <span style="background: LightGoldenRodYellow; margin: 4px; border: 1px solid khaki"> (#/#200000003204)</span></td></tr></table></div>
        </text>
        <identifier>
          <use value="official"/>
          <system value="https://spor.ema.europa.eu/pmswi/#/"/>
          <value value="EU/1/16/1157/002"/>
        </identifier>
        <name value="3 ml cartridge (glass) in a pre-filled pen"/>
        <type>
          <coding>
            <system value="https://spor.ema.europa.eu/rmswi/"/>
            <code value="/#100000155527"/>
          </coding>
          <text value="Chemical Medicinal Product"/>
        </type>
        <status>
          <coding>
            <system value="http://hl7.org/fhir/publication-status"/>
            <code value="active"/>
            <display value="Active"/>
          </coding>
        </status>
        <statusDate value="2015-02-07T13:28:17Z"/>
        <containedItemQuantity>
          <value value="3"/>
          <unit value="ml"/>
        </containedItemQuantity>
        <description value="Type I colourless glass cartridge with a black plunger (bromobutyl rubber) and a flanged cap (aluminium) with inserted laminated sealing disks (bromobutyl rubber on the medicinal product side and polyisoprene on the outside) containing 3 ml of solution. Each cartridge is assembled into a disposable pen."/>
        <copackagedIndicator value="false"/>
        <manufacturer>
          <reference value="Organization/cfsb2176224411725"/>
        </manufacturer>
        <package>
          <identifier>
            <use value="official"/>
            <system value="https://spor.ema.europa.eu/rmswi/#/"/>
            <value value="EU/1/16/1157/002"/>
          </identifier>
          <type>
            <coding>
              <system value="https://spor.ema.europa.eu/rmswi/"/>
              <code value="/#100000073543"/>
            </coding>
            <text value="Pre-filled pen"/>
          </type>
          <quantity value="3"/>
          <material>
            <coding>
              <system value="https://spor.ema.europa.eu/rmswi/"/>
              <code value="/#200000003204"/>
            </coding>
            <text value="Glass type I"/>
          </material>
        </package>
      </PackagedProductDefinition>
    </resource>
  </entry>
  <entry>
    <resource>
      <AdministrableProductDefinition>
        <id value="cfsb3361388689784"/>
        <text>
          <status value="generated"/><div xmlns="http://www.w3.org/1999/xhtml"><p><b>Generated Narrative</b></p><div style="display: inline-block; background-color: #d9e0e7; padding: 6px; margin: 4px; border: 1px solid #8da1b4; border-radius: 5px; line-height: 60%"><p style="margin-bottom: 0px">Resource "cfsb3361388689784" </p></div><p><b>identifier</b>: id: TBD (OFFICIAL)</p><p><b>status</b>: active</p><p><b>formOf</b>: <a href="#MedicinalProductDefinition_cfsb1151803027115">See above (MedicinalProductDefinition/cfsb1151803027115)</a></p><p><b>administrableDoseForm</b>: Solution for injection <span style="background: LightGoldenRodYellow; margin: 4px; border: 1px solid khaki"> (#100000073863)</span></p><p><b>unitOfPresentation</b>: Pen <span style="background: LightGoldenRodYellow; margin: 4px; border: 1px solid khaki"> (#/#200000002135)</span></p><p><b>producedFrom</b>: <a href="#ManufacturedItemDefinition_cfsb6176453266374">See above (ManufacturedItemDefinition/cfsb6176453266374)</a></p><blockquote><p><b>routeOfAdministration</b></p><p><b>code</b>: Subcutaneous use <span style="background: LightGoldenRodYellow; margin: 4px; border: 1px solid khaki"> (#100000073633)</span></p><h3>TargetSpecies</h3><table class="grid"><tr><td>-</td><td><b>Code</b></td></tr><tr><td>*</td><td>Human <span style="background: LightGoldenRodYellow; margin: 4px; border: 1px solid khaki"> (#/#100000109093)</span></td></tr></table></blockquote></div>
        </text>
        <identifier>
          <use value="official"/>
          <system value="https://spor.ema.europa.eu/pmswi/#/"/>
          <value value="TBD"/>
        </identifier>
        <status value="active"/>
        <formOf>
          <reference value="MedicinalProductDefinition/cfsb1151803027115"/>
        </formOf>
        <administrableDoseForm>
          <coding>
            <system value="https://spor.ema.europa.eu/rmswi/"/>
            <code value="100000073863"/>
          </coding>
          <text value="Solution for injection"/>
        </administrableDoseForm>
        <unitOfPresentation>
          <coding>
            <system value="https://spor.ema.europa.eu/rmswi/"/>
            <code value="/#200000002135"/>
          </coding>
          <text value="Pen"/>
        </unitOfPresentation>
        <producedFrom>
          <reference value="ManufacturedItemDefinition/cfsb6176453266374"/>
        </producedFrom>
        <routeOfAdministration>
          <code>
            <coding>
              <system value="https://spor.ema.europa.eu/rmswi/"/>
              <code value="100000073633"/>
            </coding>
            <text value="Subcutaneous use"/>
          </code>
          <targetSpecies>
            <code>
              <coding>
                <system value="https://spor.ema.europa.eu/rmswi/"/>
                <code value="/#100000109093"/>
              </coding>
              <text value="Human"/>
            </code>
          </targetSpecies>
        </routeOfAdministration>
      </AdministrableProductDefinition>
    </resource>
  </entry>
  <entry>
    <resource>
      <ManufacturedItemDefinition>
        <id value="cfsb6176453266374"/>
        <text>
          <status value="generated"/><div xmlns="http://www.w3.org/1999/xhtml"><p><b>Generated Narrative</b></p><div style="display: inline-block; background-color: #d9e0e7; padding: 6px; margin: 4px; border: 1px solid #8da1b4; border-radius: 5px; line-height: 60%"><p style="margin-bottom: 0px">Resource "cfsb6176453266374" </p></div><p><b>identifier</b>: id: EU/1/16/1157/002 (OFFICIAL)</p><p><b>status</b>: active</p><p><b>manufacturedDoseForm</b>: Solution <span style="background: LightGoldenRodYellow; margin: 4px; border: 1px solid khaki"> (#/#200000002007)</span></p><p><b>unitOfPresentation</b>: Pen <span style="background: LightGoldenRodYellow; margin: 4px; border: 1px solid khaki"> (#/#200000002135)</span></p><p><b>manufacturer</b>: <a href="#Organization_cfsb2176224411725">See above (Organization/cfsb2176224411725)</a></p></div>
        </text>
        <identifier>
          <use value="official"/>
          <system value="https://spor.ema.europa.eu/pmswi/#/"/>
          <value value="EU/1/16/1157/002"/>
        </identifier>
        <status value="active"/>
        <manufacturedDoseForm>
          <coding>
            <system value="https://spor.ema.europa.eu/rmswi/"/>
            <code value="/#200000002007"/>
          </coding>
          <text value="Solution"/>
        </manufacturedDoseForm>
        <unitOfPresentation>
          <coding>
            <system value="https://spor.ema.europa.eu/rmswi/"/>
            <code value="/#200000002135"/>
          </coding>
          <text value="Pen"/>
        </unitOfPresentation>
        <manufacturer>
          <reference value="Organization/cfsb2176224411725"/>
        </manufacturer>
      </ManufacturedItemDefinition>
    </resource>
  </entry>
  <entry>
    <resource>
      <Ingredient>
        <id value="cfsb3768802370375"/>
        <text>
          <status value="generated"/><div xmlns="http://www.w3.org/1999/xhtml"><p><b>Generated Narrative</b></p><div style="display: inline-block; background-color: #d9e0e7; padding: 6px; margin: 4px; border: 1px solid #8da1b4; border-radius: 5px; line-height: 60%"><p style="margin-bottom: 0px">Resource "cfsb3768802370375" </p></div><p><b>identifier</b>: id: 2ZM8CX04RZ (OFFICIAL)</p><p><b>status</b>: active</p><p><b>role</b>: active <span style="background: LightGoldenRodYellow; margin: 4px; border: 1px solid khaki"> (#/#00000072072)</span></p><p><b>allergenicIndicator</b>: false</p><h3>Manufacturers</h3><table class="grid"><tr><td>-</td><td><b>Manufacturer</b></td></tr><tr><td>*</td><td><a href="#Organization_cfsb2176224411725">See above (Organization/cfsb2176224411725)</a></td></tr></table><blockquote><p><b>substance</b></p><h3>Strengths</h3><table class="grid"><tr><td>-</td><td><b>Presentation[x]</b></td><td><b>Basis</b></td></tr><tr><td>*</td><td>100 units/ml</td><td>active ingredient - basis of strength <span style="background: LightGoldenRodYellow; margin: 4px; border: 1px solid khaki"> (v3-RoleClassIngredientEntity#ACTIB)</span></td></tr></table></blockquote></div>
        </text>
        <identifier>
          <use value="official"/>
          <system value="https://gsrs.ncats.nih.gov/ginas/app/beta/"/>
          <value value="2ZM8CX04RZ"/>
        </identifier>
        <status value="active"/>
        <role>
          <coding>
            <system value="https://spor.ema.europa.eu/rmswi/"/>
            <code value="/#00000072072"/>
          </coding>
          <text value="active"/>
        </role>
        <allergenicIndicator value="false"/>
        <manufacturer>
          <manufacturer>
            <reference value="Organization/cfsb2176224411725"/>
          </manufacturer>
        </manufacturer>
        <substance>
          <code>
            <concept>
              <coding>
                <system value="https://gsrs.ncats.nih.gov/ginas/app/beta/"/>
                <code value="2ZM8CX04RZ"/>
                <display value="Insulin glargine"/>
              </coding>
            </concept>
          </code>
          <strength>
            <presentationQuantity>
              <value value="100"/>
              <unit value="units/ml"/>
            </presentationQuantity>
            <basis>
              <coding>
                <system value="http://terminology.hl7.org/ValueSet/v3-RoleClassIngredientEntity"/>
                <code value="ACTIB"/>
              </coding>
              <text value="active ingredient - basis of strength"/>
            </basis>
          </strength>
        </substance>
      </Ingredient>
    </resource>
  </entry>
  <entry>
    <resource>
      <Ingredient>
        <id value="cfsb8724428384435"/>
        <text>
          <status value="generated"/><div xmlns="http://www.w3.org/1999/xhtml"><p><b>Generated Narrative</b></p><div style="display: inline-block; background-color: #d9e0e7; padding: 6px; margin: 4px; border: 1px solid #8da1b4; border-radius: 5px; line-height: 60%"><p style="margin-bottom: 0px">Resource "cfsb8724428384435" </p></div><p><b>identifier</b>: id: 74O62BB01U (OFFICIAL)</p><p><b>status</b>: active</p><p><b>role</b>: active <span style="background: LightGoldenRodYellow; margin: 4px; border: 1px solid khaki"> (#/#00000072072)</span></p><p><b>allergenicIndicator</b>: false</p><h3>Manufacturers</h3><table class="grid"><tr><td>-</td><td><b>Manufacturer</b></td></tr><tr><td>*</td><td><a href="#Organization_cfsb2176224411725">See above (Organization/cfsb2176224411725)</a></td></tr></table><blockquote><p><b>substance</b></p><h3>Strengths</h3><table class="grid"><tr><td>-</td><td><b>Presentation[x]</b></td><td><b>Basis</b></td></tr><tr><td>*</td><td>50 ug/ml</td><td>active ingredient - basis of strength <span style="background: LightGoldenRodYellow; margin: 4px; border: 1px solid khaki"> (v3-RoleClassIngredientEntity#ACTIB)</span></td></tr></table></blockquote></div>
        </text>
        <identifier>
          <use value="official"/>
          <system value="https://gsrs.ncats.nih.gov/ginas/app/beta/"/>
          <value value="74O62BB01U"/>
        </identifier>
        <status value="active"/>
        <role>
          <coding>
            <system value="https://spor.ema.europa.eu/rmswi/"/>
            <code value="/#00000072072"/>
          </coding>
          <text value="active"/>
        </role>
        <allergenicIndicator value="false"/>
        <manufacturer>
          <manufacturer>
            <reference value="Organization/cfsb2176224411725"/>
          </manufacturer>
        </manufacturer>
        <substance>
          <code>
            <concept>
              <coding>
                <system value="https://gsrs.ncats.nih.gov/ginas/app/beta/"/>
                <code value="74O62BB01U"/>
                <display value="Lixisenatide"/>
              </coding>
            </concept>
          </code>
          <strength>
            <presentationQuantity>
              <value value="50"/>
              <unit value="ug/ml"/>
            </presentationQuantity>
            <basis>
              <coding>
                <system value="http://terminology.hl7.org/ValueSet/v3-RoleClassIngredientEntity"/>
                <code value="ACTIB"/>
              </coding>
              <text value="active ingredient - basis of strength"/>
            </basis>
          </strength>
        </substance>
      </Ingredient>
    </resource>
  </entry>
  <entry>
    <resource>
      <Ingredient>
        <id value="cfsb8364716455502"/>
        <text>
          <status value="generated"/><div xmlns="http://www.w3.org/1999/xhtml"><p><b>Generated Narrative</b></p><div style="display: inline-block; background-color: #d9e0e7; padding: 6px; margin: 4px; border: 1px solid #8da1b4; border-radius: 5px; line-height: 60%"><p style="margin-bottom: 0px">Resource "cfsb8364716455502" </p></div><p><b>identifier</b>: id: 74O62BB01U (OFFICIAL)</p><p><b>status</b>: active</p><p><b>role</b>: active <span style="background: LightGoldenRodYellow; margin: 4px; border: 1px solid khaki"> (#/#00000072072)</span></p><p><b>allergenicIndicator</b>: false</p><h3>Manufacturers</h3><table class="grid"><tr><td>-</td><td><b>Manufacturer</b></td></tr><tr><td>*</td><td><a href="#Organization_cfsb2176224411725">See above (Organization/cfsb2176224411725)</a></td></tr></table><blockquote><p><b>substance</b></p><h3>Strengths</h3><table class="grid"><tr><td>-</td><td><b>Presentation[x]</b></td><td><b>Basis</b></td></tr><tr><td>*</td><td>33 ug/ml</td><td>active ingredient - basis of strength <span style="background: LightGoldenRodYellow; margin: 4px; border: 1px solid khaki"> (v3-RoleClassIngredientEntity#ACTIB)</span></td></tr></table></blockquote></div>
        </text>
        <identifier>
          <use value="official"/>
          <system value="https://gsrs.ncats.nih.gov/ginas/app/beta/"/>
          <value value="74O62BB01U"/>
        </identifier>
        <status value="active"/>
        <role>
          <coding>
            <system value="https://spor.ema.europa.eu/rmswi/"/>
            <code value="/#00000072072"/>
          </coding>
          <text value="active"/>
        </role>
        <allergenicIndicator value="false"/>
        <manufacturer>
          <manufacturer>
            <reference value="Organization/cfsb2176224411725"/>
          </manufacturer>
        </manufacturer>
        <substance>
          <code>
            <concept>
              <coding>
                <system value="https://gsrs.ncats.nih.gov/ginas/app/beta/"/>
                <code value="74O62BB01U"/>
                <display value="Lixisenatide"/>
              </coding>
            </concept>
          </code>
          <strength>
            <presentationQuantity>
              <value value="33"/>
              <unit value="ug/ml"/>
            </presentationQuantity>
            <basis>
              <coding>
                <system value="http://terminology.hl7.org/ValueSet/v3-RoleClassIngredientEntity"/>
                <code value="ACTIB"/>
              </coding>
              <text value="active ingredient - basis of strength"/>
            </basis>
          </strength>
        </substance>
      </Ingredient>
    </resource>
  </entry>
  <entry>
    <resource>
      <Ingredient>
        <id value="cfsb7644964356957"/>
        <text>
          <status value="generated"/><div xmlns="http://www.w3.org/1999/xhtml"><p><b>Generated Narrative</b></p><div style="display: inline-block; background-color: #d9e0e7; padding: 6px; margin: 4px; border: 1px solid #8da1b4; border-radius: 5px; line-height: 60%"><p style="margin-bottom: 0px">Resource "cfsb7644964356957" </p></div><p><b>identifier</b>: id: PDC6A3C0OX (OFFICIAL)</p><p><b>status</b>: active</p><p><b>role</b>: Excipient <span style="background: LightGoldenRodYellow; margin: 4px; border: 1px solid khaki"> (#/#100000072082)</span></p><p><b>allergenicIndicator</b>: false</p><h3>Manufacturers</h3><table class="grid"><tr><td>-</td><td><b>Manufacturer</b></td></tr><tr><td>*</td><td><a href="#Organization_cfsb2176224411725">See above (Organization/cfsb2176224411725)</a></td></tr></table><blockquote><p><b>substance</b></p></blockquote></div>
        </text>
        <identifier>
          <use value="official"/>
          <system value="https://gsrs.ncats.nih.gov/ginas/app/beta/"/>
          <value value="PDC6A3C0OX"/>
        </identifier>
        <status value="active"/>
        <role>
          <coding>
            <system value="https://spor.ema.europa.eu/rmswi/"/>
            <code value="/#100000072082"/>
          </coding>
          <text value="Excipient"/>
        </role>
        <allergenicIndicator value="false"/>
        <manufacturer>
          <manufacturer>
            <reference value="Organization/cfsb2176224411725"/>
          </manufacturer>
        </manufacturer>
        <substance>
          <code>
            <concept>
              <coding>
                <system value="https://gsrs.ncats.nih.gov/ginas/app/beta/"/>
                <code value="PDC6A3C0OX"/>
                <display value="Glycerol"/>
              </coding>
            </concept>
          </code>
        </substance>
      </Ingredient>
    </resource>
  </entry>
  <entry>
    <resource>
      <Ingredient>
        <id value="cfsb8873568628101"/>
        <text>
          <status value="generated"/><div xmlns="http://www.w3.org/1999/xhtml"><p><b>Generated Narrative</b></p><div style="display: inline-block; background-color: #d9e0e7; padding: 6px; margin: 4px; border: 1px solid #8da1b4; border-radius: 5px; line-height: 60%"><p style="margin-bottom: 0px">Resource "cfsb8873568628101" </p></div><p><b>identifier</b>: id: AE28F7PNPL (OFFICIAL)</p><p><b>status</b>: active</p><p><b>role</b>: Excipient <span style="background: LightGoldenRodYellow; margin: 4px; border: 1px solid khaki"> (#/#100000072082)</span></p><p><b>allergenicIndicator</b>: false</p><h3>Manufacturers</h3><table class="grid"><tr><td>-</td><td><b>Manufacturer</b></td></tr><tr><td>*</td><td><a href="#Organization_cfsb2176224411725">See above (Organization/cfsb2176224411725)</a></td></tr></table><blockquote><p><b>substance</b></p></blockquote></div>
        </text>
        <identifier>
          <use value="official"/>
          <system value="https://gsrs.ncats.nih.gov/ginas/app/beta/"/>
          <value value="AE28F7PNPL"/>
        </identifier>
        <status value="active"/>
        <role>
          <coding>
            <system value="https://spor.ema.europa.eu/rmswi/"/>
            <code value="/#100000072082"/>
          </coding>
          <text value="Excipient"/>
        </role>
        <allergenicIndicator value="false"/>
        <manufacturer>
          <manufacturer>
            <reference value="Organization/cfsb2176224411725"/>
          </manufacturer>
        </manufacturer>
        <substance>
          <code>
            <concept>
              <coding>
                <system value="https://gsrs.ncats.nih.gov/ginas/app/beta/"/>
                <code value="AE28F7PNPL"/>
                <display value="Methionine"/>
              </coding>
            </concept>
          </code>
        </substance>
      </Ingredient>
    </resource>
  </entry>
  <entry>
    <resource>
      <Ingredient>
        <id value="cfsb7194634205639"/>
        <text>
          <status value="generated"/><div xmlns="http://www.w3.org/1999/xhtml"><p><b>Generated Narrative</b></p><div style="display: inline-block; background-color: #d9e0e7; padding: 6px; margin: 4px; border: 1px solid #8da1b4; border-radius: 5px; line-height: 60%"><p style="margin-bottom: 0px">Resource "cfsb7194634205639" </p></div><p><b>identifier</b>: id: GGO4Y809LO (OFFICIAL)</p><p><b>status</b>: active</p><p><b>role</b>: Excipient <span style="background: LightGoldenRodYellow; margin: 4px; border: 1px solid khaki"> (#/#100000072082)</span></p><p><b>allergenicIndicator</b>: false</p><h3>Manufacturers</h3><table class="grid"><tr><td>-</td><td><b>Manufacturer</b></td></tr><tr><td>*</td><td><a href="#Organization_cfsb2176224411725">See above (Organization/cfsb2176224411725)</a></td></tr></table><blockquote><p><b>substance</b></p></blockquote></div>
        </text>
        <identifier>
          <use value="official"/>
          <system value="https://gsrs.ncats.nih.gov/ginas/app/beta/"/>
          <value value="GGO4Y809LO"/>
        </identifier>
        <status value="active"/>
        <role>
          <coding>
            <system value="https://spor.ema.europa.eu/rmswi/"/>
            <code value="/#100000072082"/>
          </coding>
          <text value="Excipient"/>
        </role>
        <allergenicIndicator value="false"/>
        <manufacturer>
          <manufacturer>
            <reference value="Organization/cfsb2176224411725"/>
          </manufacturer>
        </manufacturer>
        <substance>
          <code>
            <concept>
              <coding>
                <system value="https://gsrs.ncats.nih.gov/ginas/app/beta/"/>
                <code value="GGO4Y809LO"/>
                <display value="Metacresol"/>
              </coding>
            </concept>
          </code>
        </substance>
      </Ingredient>
    </resource>
  </entry>
  <entry>
    <resource>
      <Ingredient>
        <id value="cfsb9561966749493"/>
        <text>
          <status value="generated"/><div xmlns="http://www.w3.org/1999/xhtml"><p><b>Generated Narrative</b></p><div style="display: inline-block; background-color: #d9e0e7; padding: 6px; margin: 4px; border: 1px solid #8da1b4; border-radius: 5px; line-height: 60%"><p style="margin-bottom: 0px">Resource "cfsb9561966749493" </p></div><p><b>identifier</b>: id: 86Q357L16B (OFFICIAL)</p><p><b>status</b>: active</p><p><b>role</b>: Excipient <span style="background: LightGoldenRodYellow; margin: 4px; border: 1px solid khaki"> (#/#100000072082)</span></p><p><b>allergenicIndicator</b>: false</p><h3>Manufacturers</h3><table class="grid"><tr><td>-</td><td><b>Manufacturer</b></td></tr><tr><td>*</td><td><a href="#Organization_cfsb2176224411725">See above (Organization/cfsb2176224411725)</a></td></tr></table><blockquote><p><b>substance</b></p></blockquote></div>
        </text>
        <identifier>
          <use value="official"/>
          <system value="https://gsrs.ncats.nih.gov/ginas/app/beta/"/>
          <value value="86Q357L16B"/>
        </identifier>
        <status value="active"/>
        <role>
          <coding>
            <system value="https://spor.ema.europa.eu/rmswi/"/>
            <code value="/#100000072082"/>
          </coding>
          <text value="Excipient"/>
        </role>
        <allergenicIndicator value="false"/>
        <manufacturer>
          <manufacturer>
            <reference value="Organization/cfsb2176224411725"/>
          </manufacturer>
        </manufacturer>
        <substance>
          <code>
            <concept>
              <coding>
                <system value="https://gsrs.ncats.nih.gov/ginas/app/beta/"/>
                <code value="86Q357L16B"/>
                <display value="Zinc chloride"/>
              </coding>
            </concept>
          </code>
        </substance>
      </Ingredient>
    </resource>
  </entry>
  <entry>
    <resource>
      <Ingredient>
        <id value="cfsb1268193754623"/>
        <text>
          <status value="generated"/><div xmlns="http://www.w3.org/1999/xhtml"><p><b>Generated Narrative</b></p><div style="display: inline-block; background-color: #d9e0e7; padding: 6px; margin: 4px; border: 1px solid #8da1b4; border-radius: 5px; line-height: 60%"><p style="margin-bottom: 0px">Resource "cfsb1268193754623" </p></div><p><b>identifier</b>: id: QTT17582CB (OFFICIAL)</p><p><b>status</b>: active</p><p><b>role</b>: Excipient <span style="background: LightGoldenRodYellow; margin: 4px; border: 1px solid khaki"> (#/#100000072082)</span></p><p><b>allergenicIndicator</b>: false</p><h3>Manufacturers</h3><table class="grid"><tr><td>-</td><td><b>Manufacturer</b></td></tr><tr><td>*</td><td><a href="#Organization_cfsb2176224411725">See above (Organization/cfsb2176224411725)</a></td></tr></table><blockquote><p><b>substance</b></p></blockquote></div>
        </text>
        <identifier>
          <use value="official"/>
          <system value="https://gsrs.ncats.nih.gov/ginas/app/beta/"/>
          <value value="QTT17582CB"/>
        </identifier>
        <status value="active"/>
        <role>
          <coding>
            <system value="https://spor.ema.europa.eu/rmswi/"/>
            <code value="/#100000072082"/>
          </coding>
          <text value="Excipient"/>
        </role>
        <allergenicIndicator value="false"/>
        <manufacturer>
          <manufacturer>
            <reference value="Organization/cfsb2176224411725"/>
          </manufacturer>
        </manufacturer>
        <substance>
          <code>
            <concept>
              <coding>
                <system value="https://gsrs.ncats.nih.gov/ginas/app/beta/"/>
                <code value="QTT17582CB"/>
                <display value="Concentrated hydrochloric acid"/>
              </coding>
            </concept>
          </code>
        </substance>
      </Ingredient>
    </resource>
  </entry>
  <entry>
    <resource>
      <Ingredient>
        <id value="cfsb3286639616821"/>
        <text>
          <status value="generated"/><div xmlns="http://www.w3.org/1999/xhtml"><p><b>Generated Narrative</b></p><div style="display: inline-block; background-color: #d9e0e7; padding: 6px; margin: 4px; border: 1px solid #8da1b4; border-radius: 5px; line-height: 60%"><p style="margin-bottom: 0px">Resource "cfsb3286639616821" </p></div><p><b>identifier</b>: id: 55X04QC32I (OFFICIAL)</p><p><b>status</b>: active</p><p><b>role</b>: Excipient <span style="background: LightGoldenRodYellow; margin: 4px; border: 1px solid khaki"> (#/#100000072082)</span></p><p><b>allergenicIndicator</b>: false</p><h3>Manufacturers</h3><table class="grid"><tr><td>-</td><td><b>Manufacturer</b></td></tr><tr><td>*</td><td><a href="#Organization_cfsb2176224411725">See above (Organization/cfsb2176224411725)</a></td></tr></table><blockquote><p><b>substance</b></p></blockquote></div>
        </text>
        <identifier>
          <use value="official"/>
          <system value="https://gsrs.ncats.nih.gov/ginas/app/beta/"/>
          <value value="55X04QC32I"/>
        </identifier>
        <status value="active"/>
        <role>
          <coding>
            <system value="https://spor.ema.europa.eu/rmswi/"/>
            <code value="/#100000072082"/>
          </coding>
          <text value="Excipient"/>
        </role>
        <allergenicIndicator value="false"/>
        <manufacturer>
          <manufacturer>
            <reference value="Organization/cfsb2176224411725"/>
          </manufacturer>
        </manufacturer>
        <substance>
          <code>
            <concept>
              <coding>
                <system value="https://gsrs.ncats.nih.gov/ginas/app/beta/"/>
                <code value="55X04QC32I"/>
                <display value="Sodium hydroxide"/>
              </coding>
            </concept>
          </code>
        </substance>
      </Ingredient>
    </resource>
  </entry>
  <entry>
    <resource>
      <Ingredient>
        <id value="cfsb7034777237464"/>
        <text>
          <status value="generated"/><div xmlns="http://www.w3.org/1999/xhtml"><p><b>Generated Narrative</b></p><div style="display: inline-block; background-color: #d9e0e7; padding: 6px; margin: 4px; border: 1px solid #8da1b4; border-radius: 5px; line-height: 60%"><p style="margin-bottom: 0px">Resource "cfsb7034777237464" </p></div><p><b>identifier</b>: id: 059QF0KO0R (OFFICIAL)</p><p><b>status</b>: active</p><p><b>role</b>: Excipient <span style="background: LightGoldenRodYellow; margin: 4px; border: 1px solid khaki"> (#/#100000072082)</span></p><p><b>allergenicIndicator</b>: false</p><h3>Manufacturers</h3><table class="grid"><tr><td>-</td><td><b>Manufacturer</b></td></tr><tr><td>*</td><td><a href="#Organization_cfsb2176224411725">See above (Organization/cfsb2176224411725)</a></td></tr></table><blockquote><p><b>substance</b></p></blockquote></div>
        </text>
        <identifier>
          <use value="official"/>
          <system value="https://gsrs.ncats.nih.gov/ginas/app/beta/"/>
          <value value="059QF0KO0R"/>
        </identifier>
        <status value="active"/>
        <role>
          <coding>
            <system value="https://spor.ema.europa.eu/rmswi/"/>
            <code value="/#100000072082"/>
          </coding>
          <text value="Excipient"/>
        </role>
        <allergenicIndicator value="false"/>
        <manufacturer>
          <manufacturer>
            <reference value="Organization/cfsb2176224411725"/>
          </manufacturer>
        </manufacturer>
        <substance>
          <code>
            <concept>
              <coding>
                <system value="https://gsrs.ncats.nih.gov/ginas/app/beta/"/>
                <code value="059QF0KO0R"/>
                <display value="Water for injections"/>
              </coding>
            </concept>
          </code>
        </substance>
      </Ingredient>
    </resource>
  </entry>
  <entry>
    <resource>
      <ClinicalUseDefinition>
        <id value="cfsb4325643431772"/>
        <text>
          <status value="generated"/><div xmlns="http://www.w3.org/1999/xhtml"><p><b>Generated Narrative</b></p><div style="display: inline-block; background-color: #d9e0e7; padding: 6px; margin: 4px; border: 1px solid #8da1b4; border-radius: 5px; line-height: 60%"><p style="margin-bottom: 0px">Resource "cfsb4325643431772" </p></div><p><b>identifier</b>: id: Hypersensitivity reaction (OFFICIAL)</p><p><b>type</b>: contraindication</p><p><b>subject</b>: </p><ul><li><a href="#MedicinalProductDefinition_cfsb1151803027115">See above (MedicinalProductDefinition/cfsb1151803027115)</a></li><li><a href="MedicinalProductDefinition-cfsb7123030148537.html">MedicinalProductDefinition/cfsb7123030148537</a></li></ul></div>
        </text>
        <identifier>
          <use value="official"/>
          <system value="https://spor.ema.europa.eu/rmswi/#/"/>
          <value value="Hypersensitivity reaction"/>
        </identifier>
        <type value="contraindication"/>
        <subject>
          <reference value="MedicinalProductDefinition/cfsb1151803027115"/>
        </subject>
        <subject>
          <reference value="MedicinalProductDefinition/cfsb7123030148537"/>
        </subject>
      </ClinicalUseDefinition>
    </resource>
  </entry>
  <entry>
    <resource>
      <ClinicalUseDefinition>
        <id value="cfsb8699684597483"/>
        <text>
          <status value="generated"/><div xmlns="http://www.w3.org/1999/xhtml"><p><b>Generated Narrative</b></p><div style="display: inline-block; background-color: #d9e0e7; padding: 6px; margin: 4px; border: 1px solid #8da1b4; border-radius: 5px; line-height: 60%"><p style="margin-bottom: 0px">Resource "cfsb8699684597483" </p></div><p><b>identifier</b>: id: Type 2 diabetes mellitus (OFFICIAL)</p><p><b>type</b>: indication</p><p><b>subject</b>: </p><ul><li><a href="#MedicinalProductDefinition_cfsb1151803027115">See above (MedicinalProductDefinition/cfsb1151803027115)</a></li><li><a href="MedicinalProductDefinition-cfsb7123030148537.html">MedicinalProductDefinition/cfsb7123030148537</a></li></ul></div>
        </text>
        <identifier>
          <use value="official"/>
          <system value="https://spor.ema.europa.eu/rmswi/#/"/>
          <value value="Type 2 diabetes mellitus"/>
        </identifier>
        <type value="indication"/>
        <subject>
          <reference value="MedicinalProductDefinition/cfsb1151803027115"/>
        </subject>
        <subject>
          <reference value="MedicinalProductDefinition/cfsb7123030148537"/>
        </subject>
      </ClinicalUseDefinition>
    </resource>
  </entry>
  <entry>
    <resource>
      <DocumentReference>
        <id value="cfsb5671063821622"/>
        <text>
          <status value="generated"/><div xmlns="http://www.w3.org/1999/xhtml"><p><b>Generated Narrative</b></p><div style="display: inline-block; background-color: #d9e0e7; padding: 6px; margin: 4px; border: 1px solid #8da1b4; border-radius: 5px; line-height: 60%"><p style="margin-bottom: 0px">Resource "cfsb5671063821622" </p></div><p><b>status</b>: current</p><p><b>description</b>: Instruksjonsfilm for bruk av ferdigfylt penn.</p><blockquote><p><b>content</b></p></blockquote></div>
        </text>
        <status value="current"/>
        <description value="Instruksjonsfilm for bruk av ferdigfylt penn."/>
        <content>
          <attachment>
            <contentType value="video/mp4"/>
            <language value="no"/>
            <url value="https://www.felleskatalogen.no/medisin/film/suliqua-ferdigfylt-penn.mp4"/>
            <title value="Suliqua ferdigfylt penn"/>
            <creation value="2018-09-28"/>
            <height value="404"/>
            <width value="720"/>
            <duration value="366"/>
          </attachment>
        </content>
      </DocumentReference>
    </resource>
  </entry>
</Bundle>