{
  "resourceType": "Bundle",
  "id": "8ca935a2-79e9-445b-a38c-f5ce4253f3f5",
  "meta": {
    "lastUpdated": "2025-12-11T02:21:13.475+00:00"
  },
  "type": "searchset",
  "total": 1,
  "link": [ {
    "relation": "self",
    "url": "http://sandbox.hl7europe.eu/unicom/fhir/MedicinalProductDefinition?_format=json&_id=Betaklav-500mg-125mg-EE-MPD&_include%3Aiterate=RegulatedAuthorization%3Aholder&_include%3Aiterate=PackagedProductDefinition%3Amanufactured-item&_include%3Aiterate=Ingredient%3Afor&_revinclude=RegulatedAuthorization%3Asubject&_revinclude=PackagedProductDefinition%3Apackage-for&_revinclude=AdministrableProductDefinition%3Aform-of&_revinclude%3Aiterate=Ingredient%3Afor&_revinclude%3Aiterate=Ingredient%3Afor"
  } ],
  "entry": [ {
    "fullUrl": "http://sandbox.hl7europe.eu/unicom/fhir/MedicinalProductDefinition/Betaklav-500mg-125mg-EE-MPD",
    "resource": {
      "resourceType": "MedicinalProductDefinition",
      "id": "Betaklav-500mg-125mg-EE-MPD",
      "meta": {
        "versionId": "1",
        "lastUpdated": "2025-11-26T10:51:48.908+00:00",
        "profile": [ "http://unicom-project.eu/fhir/StructureDefinition/PPLMedicinalProductDefinition" ]
      },
      "identifier": [ {
        "system": "http://ema.europa.eu/fhir/mpId",
        "value": "EE-100009540-30722"
      }, {
        "system": "http://ema.europa.eu/fhir/pmsId",
        "value": "0000000000006"
      } ],
      "domain": {
        "coding": [ {
          "system": "https://spor.ema.europa.eu/v1/lists/100000000004",
          "code": "100000000012",
          "display": "Human use"
        } ]
      },
      "status": {
        "coding": [ {
          "system": "https://spor.ema.europa.eu/v1/lists/200000005003",
          "code": "200000005004",
          "display": "Current"
        } ]
      },
      "combinedPharmaceuticalDoseForm": {
        "coding": [ {
          "system": "https://spor.ema.europa.eu/v1/lists/200000000004",
          "code": "100000073665",
          "display": "Film-coated tablet"
        } ]
      },
      "legalStatusOfSupply": {
        "coding": [ {
          "system": "https://spor.ema.europa.eu/v1/lists/100000072051",
          "code": "100000072084",
          "display": "Medicinal Product subject to medical prescription"
        } ]
      },
      "classification": [ {
        "coding": [ {
          "system": "https://spor.ema.europa.eu/v1/lists/100000093533",
          "code": "100000096162",
          "display": "amoxicillin and beta-lactamase inhibitor"
        } ]
      }, {
        "coding": [ {
          "system": "http://www.whocc.no/atc",
          "code": "J01CR02",
          "display": "amoxicillin and beta-lactamase inhibitor"
        } ]
      } ],
      "name": [ {
        "productName": "Betaklav 500 mg/125 mg õhukese polümeerikattega tabletid",
        "part": [ {
          "part": "Betaklav",
          "type": {
            "coding": [ {
              "system": "https://spor.ema.europa.eu/v1/lists/220000000000",
              "code": "220000000002",
              "display": "Invented name part"
            } ]
          }
        }, {
          "part": "500mg/125mg",
          "type": {
            "coding": [ {
              "system": "https://spor.ema.europa.eu/v1/lists/220000000000",
              "code": "220000000004",
              "display": "Strength part"
            } ]
          }
        }, {
          "part": "õhukese polümeerikattega tabletid",
          "type": {
            "coding": [ {
              "system": "https://spor.ema.europa.eu/v1/lists/220000000000",
              "code": "220000000005",
              "display": "Pharmaceutical dose form part"
            } ]
          }
        } ],
        "usage": [ {
          "country": {
            "coding": [ {
              "system": "https://spor.ema.europa.eu/v1/lists/100000000002",
              "code": "100000000388",
              "display": "Republic of Estonia"
            } ]
          },
          "language": {
            "coding": [ {
              "system": "urn:ietf:bcp:47",
              "code": "et",
              "display": "Estonian"
            } ]
          }
        } ]
      } ]
    },
    "search": {
      "mode": "match"
    }
  }, {
    "fullUrl": "http://sandbox.hl7europe.eu/unicom/fhir/RegulatedAuthorization/Betaklav-500mg-125mg-EE-RA",
    "resource": {
      "resourceType": "RegulatedAuthorization",
      "id": "Betaklav-500mg-125mg-EE-RA",
      "meta": {
        "versionId": "1",
        "lastUpdated": "2025-11-26T10:51:49.150+00:00",
        "profile": [ "http://unicom-project.eu/fhir/StructureDefinition/PPLRegulatedAuthorization" ]
      },
      "identifier": [ {
        "value": "879415"
      } ],
      "subject": [ {
        "reference": "MedicinalProductDefinition/Betaklav-500mg-125mg-EE-MPD"
      } ],
      "type": {
        "coding": [ {
          "system": "https://spor.ema.europa.eu/v1/lists/220000000060",
          "code": "220000000061",
          "display": "Marketing Authorisation"
        } ]
      },
      "region": [ {
        "coding": [ {
          "system": "https://spor.ema.europa.eu/v1/lists/100000000002",
          "code": "100000000388",
          "display": "Republic of Estonia"
        } ]
      } ],
      "status": {
        "coding": [ {
          "system": "https://spor.ema.europa.eu/v1/lists/100000072049",
          "code": "200000017708",
          "display": "Valid - Renewed/Varied"
        } ]
      },
      "statusDate": "2021-02-03",
      "holder": {
        "reference": "Organization/LOC-100009540-KrkaNovoMesto"
      }
    },
    "search": {
      "mode": "include"
    }
  }, {
    "fullUrl": "http://sandbox.hl7europe.eu/unicom/fhir/PackagedProductDefinition/Betaklav-500mg-125mg-EE-PPD-1635117",
    "resource": {
      "resourceType": "PackagedProductDefinition",
      "id": "Betaklav-500mg-125mg-EE-PPD-1635117",
      "meta": {
        "versionId": "1",
        "lastUpdated": "2025-11-26T10:51:50.582+00:00",
        "profile": [ "http://unicom-project.eu/fhir/StructureDefinition/PPLPackagedProductDefinition" ]
      },
      "identifier": [ {
        "system": "http://ema.europa.eu/example/pcid",
        "value": "EE-100009540-30722-1635117"
      } ],
      "packageFor": [ {
        "reference": "MedicinalProductDefinition/Betaklav-500mg-125mg-EE-MPD"
      } ],
      "containedItemQuantity": [ {
        "value": 10,
        "unit": "tablet",
        "system": "https://spor.ema.europa.eu/v1/lists/200000000014",
        "code": "200000002152"
      } ],
      "description": "Ribapakend (Al/Al) 10 õhukese polümeerikattega tabletti karbis",
      "marketingStatus": [ {
        "country": {
          "coding": [ {
            "system": "https://spor.ema.europa.eu/v1/lists/100000000002",
            "code": "100000000388",
            "display": "Republic of Estonia"
          } ]
        },
        "status": {
          "coding": [ {
            "system": "https://spor.ema.europa.eu/v1/lists/100000072052",
            "code": "100000072083",
            "display": "Marketed"
          } ]
        }
      } ],
      "packaging": {
        "type": {
          "coding": [ {
            "system": "https://spor.ema.europa.eu/v1/lists/100000073346",
            "code": "100000073498",
            "display": "Box"
          } ]
        },
        "quantity": 1,
        "material": [ {
          "coding": [ {
            "system": "https://spor.ema.europa.eu/v1/lists/200000003199",
            "code": "200000003529",
            "display": "Cardboard"
          } ]
        } ],
        "packaging": [ {
          "type": {
            "coding": [ {
              "system": "https://spor.ema.europa.eu/v1/lists/100000073346",
              "code": "100000073559",
              "display": "Strip"
            } ]
          },
          "quantity": 1,
          "material": [ {
            "coding": [ {
              "system": "https://spor.ema.europa.eu/v1/lists/200000003199",
              "code": "200000003200",
              "display": "Aluminium"
            } ]
          } ],
          "containedItem": [ {
            "item": {
              "reference": {
                "reference": "ManufacturedItemDefinition/Betaklav-500mg-125mg-EE-MID"
              }
            },
            "amount": {
              "value": 10
            }
          } ]
        } ]
      }
    },
    "search": {
      "mode": "include"
    }
  }, {
    "fullUrl": "http://sandbox.hl7europe.eu/unicom/fhir/PackagedProductDefinition/Betaklav-500mg-125mg-EE-PPD-1635207",
    "resource": {
      "resourceType": "PackagedProductDefinition",
      "id": "Betaklav-500mg-125mg-EE-PPD-1635207",
      "meta": {
        "versionId": "1",
        "lastUpdated": "2025-11-26T10:51:50.839+00:00",
        "profile": [ "http://unicom-project.eu/fhir/StructureDefinition/PPLPackagedProductDefinition" ]
      },
      "identifier": [ {
        "system": "http://ema.europa.eu/example/pcid",
        "value": "EE-100009540-30722-1635207"
      } ],
      "packageFor": [ {
        "reference": "MedicinalProductDefinition/Betaklav-500mg-125mg-EE-MPD"
      } ],
      "containedItemQuantity": [ {
        "value": 500,
        "unit": "tablet",
        "system": "https://spor.ema.europa.eu/v1/lists/200000000014",
        "code": "200000002152"
      } ],
      "description": "Ribapakend (Al/Al) 500 õhukese polümeerikattega tabletti karbis",
      "marketingStatus": [ {
        "country": {
          "coding": [ {
            "system": "https://spor.ema.europa.eu/v1/lists/100000000002",
            "code": "100000000388",
            "display": "Republic of Estonia"
          } ]
        },
        "status": {
          "coding": [ {
            "system": "https://spor.ema.europa.eu/v1/lists/100000072052",
            "code": "100000072083",
            "display": "Marketed"
          } ]
        }
      } ],
      "packaging": {
        "type": {
          "coding": [ {
            "system": "https://spor.ema.europa.eu/v1/lists/100000073346",
            "code": "100000073498",
            "display": "Box"
          } ]
        },
        "quantity": 1,
        "material": [ {
          "coding": [ {
            "system": "https://spor.ema.europa.eu/v1/lists/200000003199",
            "code": "200000003529",
            "display": "Cardboard"
          } ]
        } ],
        "packaging": [ {
          "type": {
            "coding": [ {
              "system": "https://spor.ema.europa.eu/v1/lists/100000073346",
              "code": "100000073559",
              "display": "Strip"
            } ]
          },
          "quantity": 1,
          "material": [ {
            "coding": [ {
              "system": "https://spor.ema.europa.eu/v1/lists/200000003199",
              "code": "200000003200",
              "display": "Aluminium"
            } ]
          } ],
          "containedItem": [ {
            "item": {
              "reference": {
                "reference": "ManufacturedItemDefinition/Betaklav-500mg-125mg-EE-MID"
              }
            },
            "amount": {
              "value": 500
            }
          } ]
        } ]
      }
    },
    "search": {
      "mode": "include"
    }
  }, {
    "fullUrl": "http://sandbox.hl7europe.eu/unicom/fhir/PackagedProductDefinition/Betaklav-500mg-125mg-EE-PPD-1635139",
    "resource": {
      "resourceType": "PackagedProductDefinition",
      "id": "Betaklav-500mg-125mg-EE-PPD-1635139",
      "meta": {
        "versionId": "1",
        "lastUpdated": "2025-11-26T10:51:51.081+00:00",
        "profile": [ "http://unicom-project.eu/fhir/StructureDefinition/PPLPackagedProductDefinition" ]
      },
      "identifier": [ {
        "system": "http://ema.europa.eu/example/pcid",
        "value": "EE-100009540-30722-1635139"
      } ],
      "packageFor": [ {
        "reference": "MedicinalProductDefinition/Betaklav-500mg-125mg-EE-MPD"
      } ],
      "containedItemQuantity": [ {
        "value": 14,
        "unit": "tablet",
        "system": "https://spor.ema.europa.eu/v1/lists/200000000014",
        "code": "200000002152"
      } ],
      "description": "Blisterpakend (OPA/Al/PVC foil/Al foil) 14 õhukese polümeerikattega tabletti karbis",
      "marketingStatus": [ {
        "country": {
          "coding": [ {
            "system": "https://spor.ema.europa.eu/v1/lists/100000000002",
            "code": "100000000388",
            "display": "Republic of Estonia"
          } ]
        },
        "status": {
          "coding": [ {
            "system": "https://spor.ema.europa.eu/v1/lists/100000072052",
            "code": "100000072083",
            "display": "Marketed"
          } ]
        }
      } ],
      "packaging": {
        "type": {
          "coding": [ {
            "system": "https://spor.ema.europa.eu/v1/lists/100000073346",
            "code": "100000073498",
            "display": "Box"
          } ]
        },
        "quantity": 1,
        "material": [ {
          "coding": [ {
            "system": "https://spor.ema.europa.eu/v1/lists/200000003199",
            "code": "200000003529",
            "display": "Cardboard"
          } ]
        } ],
        "packaging": [ {
          "type": {
            "coding": [ {
              "system": "https://spor.ema.europa.eu/v1/lists/100000073346",
              "code": "100000073496",
              "display": "Blister"
            } ]
          },
          "quantity": 1,
          "material": [ {
            "coding": [ {
              "system": "https://spor.ema.europa.eu/v1/lists/200000003199",
              "code": "200000003210",
              "display": "Orientated PolyAmide"
            } ]
          }, {
            "coding": [ {
              "system": "https://spor.ema.europa.eu/v1/lists/200000003199",
              "code": "200000003200",
              "display": "Aluminium"
            } ]
          }, {
            "coding": [ {
              "system": "https://spor.ema.europa.eu/v1/lists/200000003199",
              "code": "200000003222",
              "display": "PolyVinyl Chloride"
            } ]
          } ],
          "containedItem": [ {
            "item": {
              "reference": {
                "reference": "ManufacturedItemDefinition/Betaklav-500mg-125mg-EE-MID"
              }
            },
            "amount": {
              "value": 14
            }
          } ]
        } ]
      }
    },
    "search": {
      "mode": "include"
    }
  }, {
    "fullUrl": "http://sandbox.hl7europe.eu/unicom/fhir/AdministrableProductDefinition/Betaklav-500mg-125mg-EE-APD",
    "resource": {
      "resourceType": "AdministrableProductDefinition",
      "id": "Betaklav-500mg-125mg-EE-APD",
      "meta": {
        "versionId": "1",
        "lastUpdated": "2025-11-26T10:53:25.335+00:00",
        "profile": [ "http://unicom-project.eu/fhir/StructureDefinition/PPLAdministrableProductDefinition" ]
      },
      "status": "active",
      "formOf": [ {
        "reference": "MedicinalProductDefinition/Betaklav-500mg-125mg-EE-MPD"
      } ],
      "administrableDoseForm": {
        "coding": [ {
          "system": "https://spor.ema.europa.eu/v1/lists/200000000004",
          "code": "100000073665",
          "display": "Film-coated tablet"
        } ]
      },
      "unitOfPresentation": {
        "coding": [ {
          "system": "https://spor.ema.europa.eu/v1/lists/200000000014",
          "code": "200000002152",
          "display": "Tablet"
        } ]
      },
      "producedFrom": [ {
        "reference": "ManufacturedItemDefinition/Betaklav-500mg-125mg-EE-MID"
      } ],
      "routeOfAdministration": [ {
        "code": {
          "coding": [ {
            "system": "https://spor.ema.europa.eu/v1/lists/100000073345",
            "code": "100000073619",
            "display": "Oral use"
          } ]
        }
      } ]
    },
    "search": {
      "mode": "include"
    }
  }, {
    "fullUrl": "http://sandbox.hl7europe.eu/unicom/fhir/Ingredient/Betaklav-500mg-125mg-EE-I-100000092629",
    "resource": {
      "resourceType": "Ingredient",
      "id": "Betaklav-500mg-125mg-EE-I-100000092629",
      "meta": {
        "versionId": "1",
        "lastUpdated": "2025-11-26T10:53:25.830+00:00",
        "profile": [ "http://unicom-project.eu/fhir/StructureDefinition/PPLIngredient" ]
      },
      "status": "active",
      "for": [ {
        "reference": "MedicinalProductDefinition/Betaklav-500mg-125mg-EE-MPD"
      }, {
        "reference": "ManufacturedItemDefinition/Betaklav-500mg-125mg-EE-MID"
      }, {
        "reference": "AdministrableProductDefinition/Betaklav-500mg-125mg-EE-APD"
      } ],
      "role": {
        "coding": [ {
          "system": "https://spor.ema.europa.eu/v1/lists/100000072050",
          "code": "100000072072",
          "display": "Active"
        } ]
      },
      "substance": {
        "code": {
          "concept": {
            "coding": [ {
              "system": "https://spor.ema.europa.eu/v2/SubstanceDefinition",
              "code": "100000092629",
              "display": "AMOXICILLIN TRIHYDRATE"
            } ]
          }
        },
        "strength": [ {
          "presentationRatio": {
            "numerator": {
              "value": 573.892,
              "unit": "milligram(s)",
              "system": "https://spor.ema.europa.eu/v1/lists/100000110633",
              "code": "100000110655"
            },
            "denominator": {
              "value": 1,
              "unit": "tablet",
              "system": "https://spor.ema.europa.eu/v1/lists/200000000014",
              "code": "200000002152"
            }
          },
          "referenceStrength": [ {
            "substance": {
              "concept": {
                "coding": [ {
                  "system": "https://spor.ema.europa.eu/v2/SubstanceDefinition",
                  "code": "100000091596",
                  "display": "Amoxicillin"
                } ]
              }
            },
            "strengthRatio": {
              "numerator": {
                "value": 500,
                "unit": "milligram(s)",
                "system": "https://spor.ema.europa.eu/v1/lists/100000110633",
                "code": "100000110655"
              },
              "denominator": {
                "value": 1,
                "unit": "tablet",
                "system": "https://spor.ema.europa.eu/v1/lists/200000000014",
                "code": "200000002152"
              }
            }
          } ]
        } ]
      }
    },
    "search": {
      "mode": "include"
    }
  }, {
    "fullUrl": "http://sandbox.hl7europe.eu/unicom/fhir/Ingredient/Betaklav-500mg-125mg-EE-I-100000093061",
    "resource": {
      "resourceType": "Ingredient",
      "id": "Betaklav-500mg-125mg-EE-I-100000093061",
      "meta": {
        "versionId": "1",
        "lastUpdated": "2025-11-26T10:53:26.087+00:00",
        "profile": [ "http://unicom-project.eu/fhir/StructureDefinition/PPLIngredient" ]
      },
      "status": "active",
      "for": [ {
        "reference": "MedicinalProductDefinition/Betaklav-500mg-125mg-EE-MPD"
      }, {
        "reference": "ManufacturedItemDefinition/Betaklav-500mg-125mg-EE-MID"
      }, {
        "reference": "AdministrableProductDefinition/Betaklav-500mg-125mg-EE-APD"
      } ],
      "role": {
        "coding": [ {
          "system": "https://spor.ema.europa.eu/v1/lists/100000072050",
          "code": "100000072072",
          "display": "Active"
        } ]
      },
      "substance": {
        "code": {
          "concept": {
            "coding": [ {
              "system": "https://spor.ema.europa.eu/v2/SubstanceDefinition",
              "code": "100000093061",
              "display": "POTASSIUM CLAVULANATE"
            } ]
          }
        },
        "strength": [ {
          "presentationRatio": {
            "numerator": {
              "value": 151.915,
              "unit": "milligram(s)",
              "system": "https://spor.ema.europa.eu/v1/lists/100000110633",
              "code": "100000110655"
            },
            "denominator": {
              "value": 1,
              "unit": "tablet",
              "system": "https://spor.ema.europa.eu/v1/lists/200000000014",
              "code": "200000002152"
            }
          },
          "referenceStrength": [ {
            "substance": {
              "concept": {
                "coding": [ {
                  "system": "https://spor.ema.europa.eu/v2/SubstanceDefinition",
                  "code": "100000089842",
                  "display": "CLAVULANIC ACID"
                } ]
              }
            },
            "strengthRatio": {
              "numerator": {
                "value": 125,
                "unit": "milligram(s)",
                "system": "https://spor.ema.europa.eu/v1/lists/100000110633",
                "code": "100000110655"
              },
              "denominator": {
                "value": 1,
                "unit": "tablet",
                "system": "https://spor.ema.europa.eu/v1/lists/200000000014",
                "code": "200000002152"
              }
            }
          } ]
        } ]
      }
    },
    "search": {
      "mode": "include"
    }
  }, {
    "fullUrl": "http://sandbox.hl7europe.eu/unicom/fhir/ManufacturedItemDefinition/Betaklav-500mg-125mg-EE-MID",
    "resource": {
      "resourceType": "ManufacturedItemDefinition",
      "id": "Betaklav-500mg-125mg-EE-MID",
      "meta": {
        "versionId": "1",
        "lastUpdated": "2025-11-26T10:51:49.850+00:00",
        "profile": [ "http://unicom-project.eu/fhir/StructureDefinition/PPLManufacturedItemDefinition" ]
      },
      "status": "active",
      "manufacturedDoseForm": {
        "coding": [ {
          "system": "https://spor.ema.europa.eu/v1/lists/200000000004",
          "code": "100000073665",
          "display": "Film-coated tablet"
        } ]
      },
      "unitOfPresentation": {
        "coding": [ {
          "system": "https://spor.ema.europa.eu/v1/lists/200000000014",
          "code": "200000002152",
          "display": "Tablet"
        } ]
      }
    },
    "search": {
      "mode": "include"
    }
  }, {
    "fullUrl": "http://sandbox.hl7europe.eu/unicom/fhir/Organization/LOC-100009540-KrkaNovoMesto",
    "resource": {
      "resourceType": "Organization",
      "id": "LOC-100009540-KrkaNovoMesto",
      "meta": {
        "versionId": "1",
        "lastUpdated": "2025-11-26T10:50:40.787+00:00",
        "profile": [ "http://unicom-project.eu/fhir/StructureDefinition/PPLOrganization" ]
      },
      "identifier": [ {
        "system": "https://spor.ema.europa.eu/v1/locations",
        "value": "LOC-100009540"
      }, {
        "system": "https://spor.ema.europa.eu/v1/organisations",
        "value": "ORG-100000627"
      } ],
      "name": "KRKA, d.d., Novo mesto"
    },
    "search": {
      "mode": "include"
    }
  } ]
}