{
    "resourceType": "Bundle",
    "id": "bundle-epi-type3-example-morphine",
    "type": "document",
    "timestamp": "2023-11-27T00:00:00Z",
    "entry": [
        {
            "resource": {
                "resourceType": "Composition",
                "id": "composition-morphine-type3",
                "meta": {
                    "profile": [
                        "http://hl7.org/fhir/uv/emedicinal-product-info/StructureDefinition/composition-epi-type3"
                    ]
                },
                "status": "final",
                "type": {
                    "coding": [
                        {
                            "system": "https://spor.ema.europa.eu/v1/lists/100000155531",
                            "code": "100000155538",
                            "display": "Package Leaflet"
                        }
                    ]
                },
                "subject": [
                    {
                        "reference": "MedicinalProductDefinition/MorphineUni-1mgml-Solution-SE-BS-MPD"
                    }
                ],
                "date": "2023-11-27",
                "author": [
                    {
                        "reference": "Organization/LOC-100001090"
                    }
                ],
                "title": "Package Leaflet: Information for the user - Morphine Unimedic 1 mg/ml",
                "section": [
                    {
                        "title": "1. What Morphine Unimedic is and what it is used for",
                        "code": {
                            "coding": [
                                {
                                    "system": "https://spor.ema.europa.eu/v1/lists/200000029659",
                                    "code": "200000029895",
                                    "display": "What X is and what it is used for"
                                }
                            ]
                        },
                        "text": {
                            "status": "additional",
                            "div": "<div xmlns=\"http://www.w3.org/1999/xhtml\"><p>Morphine Unimedic contains the active substance morphine hydrochloride. It is an opioid analgesic used for severe pain.</p></div>"
                        },
                        "entry": [
                            {
                                "reference": "ClinicalUseDefinition/cud-indication-pain"
                            },
                            {
                                "reference": "ClinicalUseDefinition/cud-contra-asthma"
                            },
                            {
                                "reference": "ClinicalUseDefinition/cud-interact-alcohol"
                            },
                            {
                                "reference": "ClinicalUseDefinition/cud-warning-dependence"
                            },
                            {
                                "reference": "ClinicalUseDefinition/cud-side-nausea"
                            },
                            {
                                "reference": "MedicationKnowledge/mk-morphine"
                            }
                        ]
                    },
                    {
                        "title": "2. What you need to know before you take Morphine Unimedic",
                        "code": {
                            "coding": [
                                {
                                    "system": "https://spor.ema.europa.eu/v1/lists/200000029659",
                                    "code": "200000029896",
                                    "display": "What you need to know before you take X"
                                }
                            ]
                        },
                        "text": {
                            "status": "additional",
                            "div": "<div xmlns=\"http://www.w3.org/1999/xhtml\"><p>Do not take if allergic to morphine.</p></div>"
                        }
                    },
                    {
                        "title": "3. How to take Morphine Unimedic",
                        "code": {
                            "coding": [
                                {
                                    "system": "https://spor.ema.europa.eu/v1/lists/200000029659",
                                    "code": "200000029905",
                                    "display": "How to take X"
                                }
                            ]
                        },
                        "text": {
                            "status": "additional",
                            "div": "<div xmlns=\"http://www.w3.org/1999/xhtml\"><p>Use as directed by your doctor.</p></div>"
                        }
                    },
                    {
                        "title": "4. Possible side effects",
                        "code": {
                            "coding": [
                                {
                                    "system": "https://spor.ema.europa.eu/v1/lists/200000029659",
                                    "code": "200000029906",
                                    "display": "Possible side effects"
                                }
                            ]
                        },
                        "text": {
                            "status": "additional",
                            "div": "<div xmlns=\"http://www.w3.org/1999/xhtml\"><p>May cause nausea, vomiting, or constipation.</p></div>"
                        }
                    },
                    {
                        "title": "5. How to store Morphine Unimedic",
                        "code": {
                            "coding": [
                                {
                                    "system": "https://spor.ema.europa.eu/v1/lists/200000029659",
                                    "code": "200000029907",
                                    "display": "How to store X"
                                }
                            ]
                        },
                        "text": {
                            "status": "additional",
                            "div": "<div xmlns=\"http://www.w3.org/1999/xhtml\"><p>Keep out of reach of children.</p></div>"
                        }
                    },
                    {
                        "title": "6. Contents of the pack and other information",
                        "code": {
                            "coding": [
                                {
                                    "system": "https://spor.ema.europa.eu/v1/lists/200000029659",
                                    "code": "200000029908",
                                    "display": "Contents of the pack and other information"
                                }
                            ]
                        },
                        "text": {
                            "status": "additional",
                            "div": "<div xmlns=\"http://www.w3.org/1999/xhtml\"><p>Content: Morphine hydrochloride 1 mg/ml.</p></div>"
                        }
                    }
                ]
            }
        },
        {
            "resource": {
                "resourceType": "MedicinalProductDefinition",
                "id": "MorphineUni-1mgml-Solution-SE-BS-MPD",
                "meta": {
                    "versionId": "1",
                    "lastUpdated": "2025-11-26T09:21:19.300+00:00",
                    "profile": [
                        "http://unicom-project.eu/fhir/StructureDefinition/PPLMedicinalProductDefinition"
                    ]
                },
                "identifier": [
                    {
                        "system": "http://ema.europa.eu/fhir/mpId",
                        "value": "SE-100001732-00056117"
                    },
                    {
                        "system": "http://ema.europa.eu/fhir/eurdId",
                        "value": "10549"
                    }
                ],
                "domain": {
                    "coding": [
                        {
                            "system": "https://spor.ema.europa.eu/v1/lists/100000000004",
                            "code": "100000000012",
                            "display": "Human use"
                        }
                    ]
                },
                "status": {
                    "coding": [
                        {
                            "system": "https://spor.ema.europa.eu/v1/lists/200000005003",
                            "code": "200000005004",
                            "display": "Current"
                        }
                    ]
                },
                "combinedPharmaceuticalDoseForm": {
                    "coding": [
                        {
                            "system": "https://spor.ema.europa.eu/v1/lists/200000000004~200000000006~200000000007~200000000008",
                            "code": "100000073863",
                            "display": "Solution for injection"
                        }
                    ]
                },
                "indication": "Morphine Unimedic är indikerat för behandling av svår postoperativ och posttraumatisk smärta och svår opioidkänslig smärta såsom smärta vid cancer.",
                "legalStatusOfSupply": {
                    "coding": [
                        {
                            "system": "https://spor.ema.europa.eu/v1/lists/100000072051",
                            "code": "100000072085",
                            "display": "Medicinal product subject to special medical prescription"
                        }
                    ]
                },
                "classification": [
                    {
                        "coding": [
                            {
                                "system": "https://spor.ema.europa.eu/v1/lists/100000093533",
                                "code": "100000097139",
                                "display": "morphine"
                            }
                        ]
                    }
                ],
                "name": [
                    {
                        "productName": "Morphine Unimedic 1 mg/ml injektionsvätska, lösning",
                        "part": [
                            {
                                "part": "Morphine Unimedic",
                                "type": {
                                    "coding": [
                                        {
                                            "system": "http://spor.ema.europa.eu/v1/lists/220000000000",
                                            "code": "220000000003",
                                            "display": "Scientific name part"
                                        }
                                    ]
                                }
                            },
                            {
                                "part": "1 mg/ml",
                                "type": {
                                    "coding": [
                                        {
                                            "system": "http://spor.ema.europa.eu/v1/lists/220000000000",
                                            "code": "220000000004",
                                            "display": "Strength part"
                                        }
                                    ]
                                }
                            },
                            {
                                "part": "Injektionsvätska, lösning",
                                "type": {
                                    "coding": [
                                        {
                                            "system": "http://spor.ema.europa.eu/v1/lists/220000000000",
                                            "code": "220000000005",
                                            "display": "Pharmaceutical dose form part"
                                        }
                                    ]
                                }
                            }
                        ],
                        "usage": [
                            {
                                "country": {
                                    "coding": [
                                        {
                                            "system": "https://spor.ema.europa.eu/v1/lists/100000000002",
                                            "code": "100000000535",
                                            "display": "Kingdom of Sweden"
                                        }
                                    ]
                                },
                                "language": {
                                    "coding": [
                                        {
                                            "system": "urn:ietf:bcp:47",
                                            "code": "sv",
                                            "display": "Swedish"
                                        }
                                    ]
                                }
                            }
                        ]
                    }
                ]
            }
        },
        {
            "resource": {
                "resourceType": "RegulatedAuthorization",
                "id": "MorphineUni-1mgml-Solution-SE-BS-RA",
                "meta": {
                    "versionId": "1",
                    "lastUpdated": "2025-11-26T09:23:15.251+00:00",
                    "profile": [
                        "http://unicom-project.eu/fhir/StructureDefinition/PPLRegulatedAuthorization"
                    ]
                },
                "identifier": [
                    {
                        "system": "http://ema.europa.eu/fhir/marketingAuthorizationNumber",
                        "value": "56117"
                    }
                ],
                "subject": [
                    {
                        "reference": "MedicinalProductDefinition/MorphineUni-1mgml-Solution-SE-BS-MPD"
                    }
                ],
                "type": {
                    "coding": [
                        {
                            "system": "https://spor.ema.europa.eu/v1/lists/220000000060",
                            "code": "220000000061",
                            "display": "Marketing Authorisation"
                        }
                    ]
                },
                "region": [
                    {
                        "coding": [
                            {
                                "system": "https://spor.ema.europa.eu/v1/lists/100000000002",
                                "code": "100000000535",
                                "display": "Kingdom of Sweden"
                            }
                        ]
                    }
                ],
                "status": {
                    "coding": [
                        {
                            "system": "https://spor.ema.europa.eu/v1/lists/100000072049",
                            "code": "100000072099",
                            "display": "Valid"
                        }
                    ]
                },
                "statusDate": "2018-04-06",
                "holder": {
                    "reference": "Organization/LOC-100001090"
                },
                "case": {
                    "type": {
                        "coding": [
                            {
                                "system": "https://ema.europa.eu/fhir/authorisationDateType",
                                "code": "dateOfFirstAuthorisation",
                                "display": "First Authorisation"
                            }
                        ]
                    },
                    "dateDateTime": "2018-04-06"
                }
            }
        },
        {
            "resource": {
                "resourceType": "AdministrableProductDefinition",
                "id": "MorphineUni-1mgml-Solution-SE-BS-APD",
                "meta": {
                    "versionId": "1",
                    "lastUpdated": "2025-11-26T09:23:58.134+00:00",
                    "profile": [
                        "http://unicom-project.eu/fhir/StructureDefinition/PPLAdministrableProductDefinition"
                    ]
                },
                "status": "active",
                "formOf": [
                    {
                        "reference": "MedicinalProductDefinition/MorphineUni-1mgml-Solution-SE-BS-MPD"
                    }
                ],
                "administrableDoseForm": {
                    "coding": [
                        {
                            "system": "https://spor.ema.europa.eu/v1/lists/200000000004",
                            "code": "100000073863",
                            "display": "Solution for injection"
                        }
                    ]
                },
                "producedFrom": [
                    {
                        "reference": "ManufacturedItemDefinition/MorphineUni-1mgml-Solution-SE-BS-MID"
                    }
                ],
                "routeOfAdministration": [
                    {
                        "code": {
                            "coding": [
                                {
                                    "system": "https://spor.ema.europa.eu/v1/lists/100000073345",
                                    "code": "100000073633",
                                    "display": "Subcutaneous use"
                                },
                                {
                                    "system": "https://spor.ema.europa.eu/v1/lists/100000073345",
                                    "code": "100000073600",
                                    "display": "Intramuscular use"
                                },
                                {
                                    "system": "https://spor.ema.europa.eu/v1/lists/100000073345",
                                    "code": "100000073611",
                                    "display": "Intravenous use"
                                },
                                {
                                    "system": "https://spor.ema.europa.eu/v1/lists/100000073345",
                                    "code": "100000073572",
                                    "display": "Epidural use"
                                }
                            ]
                        }
                    }
                ]
            }
        },
        {
            "resource": {
                "resourceType": "PackagedProductDefinition",
                "id": "MorphineUni-1mgml-Solution-SE-BS-PPD",
                "meta": {
                    "versionId": "1",
                    "lastUpdated": "2025-11-26T09:26:35.272+00:00",
                    "profile": [
                        "http://unicom-project.eu/fhir/StructureDefinition/PPLPackagedProductDefinition"
                    ]
                },
                "identifier": [
                    {
                        "system": "http://ema.europa.eu/example/pcid"
                    }
                ],
                "packageFor": [
                    {
                        "reference": "MedicinalProductDefinition/MorphineUni-1mgml-Solution-SE-BS-MPD"
                    }
                ],
                "containedItemQuantity": [
                    {
                        "value": 10,
                        "unit": "Ampoule",
                        "system": "http://spor.ema.europa.eu/v1/lists/200000000014",
                        "code": "200000002164"
                    }
                ],
                "description": "Ampull, 10 x 10 ml",
                "marketingStatus": [
                    {
                        "country": {
                            "coding": [
                                {
                                    "system": "https://spor.ema.europa.eu/v1/lists/100000000002",
                                    "code": "100000000535",
                                    "display": "Kingdom of Sweden"
                                }
                            ]
                        },
                        "status": {
                            "coding": [
                                {
                                    "system": "https://spor.ema.europa.eu/v1/lists/100000072052",
                                    "code": "100000072083",
                                    "display": "Marketed"
                                }
                            ]
                        }
                    }
                ],
                "packaging": {
                    "type": {
                        "coding": [
                            {
                                "system": "https://spor.ema.europa.eu/v1/lists/100000073346",
                                "code": "100000073498",
                                "display": "Box"
                            }
                        ]
                    },
                    "quantity": 1,
                    "material": [
                        {
                            "coding": [
                                {
                                    "system": "https://spor.ema.europa.eu/v1/lists/200000003199",
                                    "code": "200000003529",
                                    "display": "Cardboard"
                                }
                            ]
                        }
                    ],
                    "packaging": [
                        {
                            "type": {
                                "coding": [
                                    {
                                        "system": "https://spor.ema.europa.eu/v1/lists/100000073346",
                                        "code": "100000073490",
                                        "display": "Ampoule"
                                    }
                                ]
                            },
                            "quantity": 10,
                            "material": [
                                {
                                    "coding": [
                                        {
                                            "system": "https://spor.ema.europa.eu/v1/lists/200000003199",
                                            "code": "200000003203",
                                            "display": "Glass"
                                        }
                                    ]
                                }
                            ],
                            "containedItem": [
                                {
                                    "item": {
                                        "reference": {
                                            "reference": "ManufacturedItemDefinition/MorphineUni-1mgml-Solution-SE-BS-MID"
                                        }
                                    },
                                    "amount": {
                                        "value": 10,
                                        "unit": "millilitre(s)",
                                        "system": "http://spor.ema.europa.eu/v1/lists/100000110633~200000000014",
                                        "code": "100000110662"
                                    }
                                }
                            ]
                        }
                    ]
                }
            }
        },
        {
            "resource": {
                "resourceType": "Ingredient",
                "id": "MorphineUni-1mgml-Solution-SE-BS-ING",
                "meta": {
                    "versionId": "1",
                    "lastUpdated": "2025-11-26T09:26:27.892+00:00",
                    "profile": [
                        "http://unicom-project.eu/fhir/StructureDefinition/PPLIngredient"
                    ]
                },
                "status": "active",
                "for": [
                    {
                        "reference": "MedicinalProductDefinition/MorphineUni-1mgml-Solution-SE-BS-MPD"
                    },
                    {
                        "reference": "ManufacturedItemDefinition/MorphineUni-1mgml-Solution-SE-BS-MID"
                    },
                    {
                        "reference": "AdministrableProductDefinition/MorphineUni-1mgml-Solution-SE-BS-APD"
                    }
                ],
                "role": {
                    "coding": [
                        {
                            "system": "https://spor.ema.europa.eu/v1/lists/100000072050",
                            "code": "100000072072",
                            "display": "Active"
                        }
                    ]
                },
                "substance": {
                    "code": {
                        "concept": {
                            "coding": [
                                {
                                    "system": "https://spor.azure-api.net/sms/api/v2/SubstanceDefinition",
                                    "code": "100000090494",
                                    "display": "Morphine hydrochloride"
                                }
                            ]
                        }
                    },
                    "strength": [
                        {
                            "concentrationRatio": {
                                "numerator": {
                                    "value": 1,
                                    "unit": "milligram(s)",
                                    "system": "http://spor.ema.europa.eu/v1/lists/100000110633",
                                    "code": "100000110655"
                                },
                                "denominator": {
                                    "value": 1,
                                    "unit": "millilitre(s)",
                                    "system": "http://spor.ema.europa.eu/v1/lists/100000110633",
                                    "code": "100000110662"
                                }
                            },
                            "referenceStrength": [
                                {
                                    "substance": {
                                        "concept": {
                                            "coding": [
                                                {
                                                    "system": "https://spor.azure-api.net/sms/api/v2/SubstanceDefinition",
                                                    "code": "100000091372",
                                                    "display": "Morphine"
                                                }
                                            ]
                                        }
                                    },
                                    "strengthRatio": {
                                        "numerator": {
                                            "value": 0.76,
                                            "unit": "milligram(s)",
                                            "system": "https://spor.ema.europa.eu/v1/lists/100000110633",
                                            "code": "100000110655"
                                        },
                                        "denominator": {
                                            "value": 1,
                                            "unit": "millilitre(s)",
                                            "system": "http://spor.ema.europa.eu/v1/lists/100000110633",
                                            "code": "100000110662"
                                        }
                                    }
                                }
                            ]
                        }
                    ]
                }
            }
        },
        {
            "resource": {
                "resourceType": "Organization",
                "id": "LOC-100001090",
                "meta": {
                    "versionId": "1",
                    "lastUpdated": "2025-11-26T09:20:05.357+00:00",
                    "profile": [
                        "http://unicom-project.eu/fhir/StructureDefinition/PPLOrganization"
                    ]
                },
                "identifier": [
                    {
                        "system": "https://spor.ema.europa.eu/v1/locations",
                        "value": "LOC-100001090"
                    }
                ],
                "name": "Unimedic Pharma AB"
            }
        },
        {
            "resource": {
                "resourceType": "ManufacturedItemDefinition",
                "id": "MorphineUni-1mgml-Solution-SE-BS-MID",
                "meta": {
                    "versionId": "1",
                    "lastUpdated": "2025-11-26T09:22:32.799+00:00",
                    "profile": [
                        "http://unicom-project.eu/fhir/StructureDefinition/PPLManufacturedItemDefinition"
                    ]
                },
                "status": "active",
                "manufacturedDoseForm": {
                    "coding": [
                        {
                            "system": "https://spor.ema.europa.eu/v1/lists/200000000004",
                            "code": "100000073863",
                            "display": "Solution for injection"
                        }
                    ]
                },
                "unitOfPresentation": {
                    "coding": [
                        {
                            "system": "https://spor.ema.europa.eu/v1/lists/200000000014",
                            "code": "200000002164",
                            "display": "Ampoule"
                        }
                    ]
                }
            }
        },
        {
            "resource": {
                "resourceType": "ClinicalUseDefinition",
                "id": "cud-indication-pain",
                "type": "indication",
                "subject": [
                    {
                        "reference": "MedicinalProductDefinition/MorphineUni-1mgml-Solution-SE-BS-MPD"
                    }
                ],
                "indication": {
                    "diseaseSymptomProcedure": {
                        "concept": {
                            "coding": [
                                {
                                    "system": "http://snomed.info/sct",
                                    "code": "22253000",
                                    "display": "Pain"
                                }
                            ]
                        }
                    }
                }
            }
        },
        {
            "resource": {
                "resourceType": "ClinicalUseDefinition",
                "id": "cud-contra-asthma",
                "type": "contraindication",
                "subject": [
                    {
                        "reference": "MedicinalProductDefinition/MorphineUni-1mgml-Solution-SE-BS-MPD"
                    }
                ],
                "contraindication": {
                    "diseaseSymptomProcedure": {
                        "concept": {
                            "coding": [
                                {
                                    "system": "http://snomed.info/sct",
                                    "code": "195967001",
                                    "display": "Acute asthma"
                                }
                            ]
                        }
                    }
                }
            }
        },
        {
            "resource": {
                "resourceType": "ClinicalUseDefinition",
                "id": "cud-interact-alcohol",
                "type": "interaction",
                "subject": [
                    {
                        "reference": "MedicinalProductDefinition/MorphineUni-1mgml-Solution-SE-BS-MPD"
                    }
                ],
                "interaction": {
                    "interactant": [
                        {
                            "itemCodeableConcept": {
                                "coding": [
                                    {
                                        "system": "http://snomed.info/sct",
                                        "code": "35368007",
                                        "display": "Alcohol"
                                    }
                                ]
                            }
                        }
                    ]
                }
            }
        },
        {
            "resource": {
                "resourceType": "ClinicalUseDefinition",
                "id": "cud-warning-dependence",
                "type": "warning",
                "subject": [
                    {
                        "reference": "MedicinalProductDefinition/MorphineUni-1mgml-Solution-SE-BS-MPD"
                    }
                ],
                "warning": {
                    "description": "Risk of opioid dependence."
                }
            }
        },
        {
            "resource": {
                "resourceType": "ClinicalUseDefinition",
                "id": "cud-side-nausea",
                "type": "undesirable-effect",
                "subject": [
                    {
                        "reference": "MedicinalProductDefinition/MorphineUni-1mgml-Solution-SE-BS-MPD"
                    }
                ],
                "undesirableEffect": {
                    "symptomConditionEffect": {
                        "concept": {
                            "coding": [
                                {
                                    "system": "http://snomed.info/sct",
                                    "code": "422587007",
                                    "display": "Nausea"
                                }
                            ]
                        }
                    }
                }
            }
        },
        {
            "resource": {
                "resourceType": "MedicationKnowledge",
                "id": "mk-morphine",
                "status": "active",
                "code": {
                    "coding": [
                        {
                            "system": "http://snomed.info/sct",
                            "code": "373465005",
                            "display": "Morphine"
                        }
                    ]
                },
                "indicationGuideline": [
                    {
                        "dosingGuideline": [
                            {
                                "treatmentIntent": {
                                    "coding": [
                                        {
                                            "system": "http://snomed.info/sct",
                                            "code": "225339009",
                                            "display": "Analgesia"
                                        }
                                    ]
                                },
                                "dosage": [
                                    {
                                        "dosage": {
                                            "text": "10 mg every 4 hours"
                                        }
                                    }
                                ]
                            }
                        ]
                    }
                ]
            }
        }
    ]
}