{
    "resourceType": "Bundle",
    "id": "bundle-epi-type3-example-wonderdrug",
    "meta": {
        "versionId": "1",
        "lastUpdated": "2023-10-27T10:00:00Z",
        "profile": [
            "http://hl7.org/fhir/uv/emedicinal-product-info/StructureDefinition/bundle-epi-type3"
        ]
    },
    "type": "document",
    "timestamp": "2023-10-27T10:00:00Z",
    "identifier": {
        "system": "http://ema.europa.eu/identifier",
        "value": "WONDERDRUG-500MG-BUNDLE-TYPE3"
    },
    "entry": [
        {
            "fullUrl": "http://hl7.org/fhir/uv/emedicinal-product-info/Composition/composition-epi-type3-example-wonderdrug",
            "resource": {
                "resourceType": "Composition",
                "id": "composition-epi-type3-example-wonderdrug",
                "meta": {
                    "versionId": "1",
                    "lastUpdated": "2023-10-27T10:00:00Z",
                    "profile": [
                        "http://hl7.org/fhir/uv/emedicinal-product-info/StructureDefinition/composition-epi-type1"
                    ]
                },
                "identifier": [
                    {
                        "system": "http://example.org/identifier",
                        "value": "composition-epi-type3-example-wonderdrug"
                    }
                ],
                "status": "final",
                "language": "en",
                "text": {
                    "status": "generated",
                    "div": "<div xmlns=\"http://www.w3.org/1999/xhtml\"><p>WonderDrug ePI Type 3 Example</p></div>"
                },
                "type": {
                    "coding": [
                        {
                            "system": "https://spor.ema.europa.eu/rmswi/",
                            "code": "100000155538",
                            "display": "Package Leaflet"
                        }
                    ],
                    "text": "Package Leaflet"
                },
                "subject": [
                    {
                        "reference": "MedicinalProductDefinition/mpd-epi-type3-example-wonderdrug"
                    }
                ],
                "date": "2023-10-27",
                "author": [
                    {
                        "reference": "Organization/org-epi-type3-example-pharma"
                    }
                ],
                "title": "WonderDrug ePI Type 3 Example",
                "section": [
                    {
                        "title": "Package Leaflet",
                        "code": {
                            "coding": [
                                {
                                    "system": "https://spor.ema.europa.eu/rmswi/",
                                    "code": "leaflet"
                                }
                            ],
                            "text": "Package Leaflet"
                        },
                        "section": [
                            {
                                "title": "Clinical Particulars",
                                "code": {
                                    "coding": [
                                        {
                                            "system": "https://spor.ema.europa.eu/rmswi/",
                                            "code": "clinical-particulars"
                                        }
                                    ]
                                },
                                "entry": [
                                    {
                                        "reference": "ClinicalUseDefinition/cud-indication-1"
                                    },
                                    {
                                        "reference": "ClinicalUseDefinition/cud-indication-2"
                                    },
                                    {
                                        "reference": "ClinicalUseDefinition/cud-contraindication-1"
                                    },
                                    {
                                        "reference": "ClinicalUseDefinition/cud-contraindication-2"
                                    },
                                    {
                                        "reference": "ClinicalUseDefinition/cud-interaction-1"
                                    },
                                    {
                                        "reference": "ClinicalUseDefinition/cud-interaction-2"
                                    },
                                    {
                                        "reference": "ClinicalUseDefinition/cud-undesirable-effect-1"
                                    },
                                    {
                                        "reference": "ClinicalUseDefinition/cud-undesirable-effect-2"
                                    },
                                    {
                                        "reference": "ClinicalUseDefinition/cud-warning-1"
                                    },
                                    {
                                        "reference": "ClinicalUseDefinition/cud-warning-2"
                                    },
                                    {
                                        "reference": "Organization/org-epi-type3-example-pharma"
                                    },
                                    {
                                        "reference": "MedicinalProductDefinition/mpd-epi-type3-example-wonderdrug"
                                    },
                                    {
                                        "reference": "MedicinalProductDefinition/mpd-epi-type2-example-paracetamol-100mg"
                                    },
                                    {
                                        "reference": "MedicinalProductDefinition/mpd-epi-type2-example-paracetamol-200mg"
                                    },
                                    {
                                        "reference": "RegulatedAuthorization/ra-epi-type2-example-paracetamol"
                                    },
                                    {
                                        "reference": "PackagedProductDefinition/ppd-epi-type2-example-paracetamol"
                                    },
                                    {
                                        "reference": "ManufacturedItemDefinition/mid-epi-type2-example-paracetamol"
                                    },
                                    {
                                        "reference": "AdministrableProductDefinition/apd-epi-type2-example-paracetamol"
                                    },
                                    {
                                        "reference": "Ingredient/ingredient-epi-type2-example-paracetamol-active"
                                    },
                                    {
                                        "reference": "MedicationKnowledge/medication-knowledge-epi-type3-example"
                                    }
                                ],
                                "text": {
                                    "status": "generated",
                                    "div": "<div xmlns=\"http://www.w3.org/1999/xhtml\">Clinical Particulars</div>"
                                }
                            },
                            {
                                "title": "1. What is in this leaflet",
                                "code": {
                                    "coding": [
                                        {
                                            "system": "https://spor.ema.europa.eu/rmswi/",
                                            "code": "100000155538"
                                        }
                                    ],
                                    "text": "1. What is in this leaflet"
                                },
                                "text": {
                                    "status": "generated",
                                    "div": "<div xmlns=\"http://www.w3.org/1999/xhtml\"><h2>1. What is in this leaflet</h2><p>Read all of this leaflet carefully before you start taking this medicine because it contains important information for you.</p></div>"
                                }
                            }
                        ],
                        "text": {
                            "status": "generated",
                            "div": "<div xmlns=\"http://www.w3.org/1999/xhtml\">Package Leaflet</div>"
                        }
                    }
                ]
            }
        },
        {
            "fullUrl": "http://hl7.org/fhir/uv/emedicinal-product-info/Organization/org-epi-type3-example-pharma",
            "resource": {
                "resourceType": "Organization",
                "id": "org-epi-type3-example-pharma",
                "meta": {
                    "profile": [
                        "http://hl7.org/fhir/uv/emedicinal-product-info/StructureDefinition/Organization-uv-epi"
                    ]
                },
                "identifier": [
                    {
                        "system": "https://spor.ema.europa.eu/omswi",
                        "value": "LOC-100000000"
                    }
                ],
                "active": true,
                "type": [
                    {
                        "coding": [
                            {
                                "system": "https://spor.ema.europa.eu/rmswi",
                                "code": "220000000034",
                                "display": "Marketing authorisation holder"
                            }
                        ]
                    }
                ],
                "name": "WonderPharma Inc.",
                "contact": [
                    {
                        "address": {
                            "text": "123 Pharma Way, 102 37 Prague 10, Czech Republic",
                            "line": [
                                "123 Pharma Way"
                            ],
                            "city": "Prague",
                            "postalCode": "102 37",
                            "country": "Czech Republic"
                        }
                    }
                ]
            }
        },
        {
            "fullUrl": "http://hl7.org/fhir/uv/emedicinal-product-info/MedicinalProductDefinition/mpd-epi-type3-example-wonderdrug",
            "resource": {
                "resourceType": "MedicinalProductDefinition",
                "id": "mpd-epi-type3-example-wonderdrug",
                "meta": {
                    "profile": [
                        "http://hl7.org/fhir/uv/emedicinal-product-info/StructureDefinition/MedicinalProductDefinition-uv-epi"
                    ]
                },
                "identifier": [
                    {
                        "system": "http://ema.europa.eu/identifier",
                        "value": "WONDERDRUG-500MG"
                    }
                ],
                "status": {
                    "coding": [
                        {
                            "system": "http://hl7.org/fhir/publication-status",
                            "code": "active",
                            "display": "Active"
                        }
                    ]
                },
                "domain": {
                    "coding": [
                        {
                            "system": "http://hl7.org/fhir/medicinal-product-domain",
                            "code": "Human",
                            "display": "Human use"
                        }
                    ]
                },
                "name": [
                    {
                        "productName": "WonderDrug 500 mg tablets",
                        "part": [
                            {
                                "part": "WonderDrug",
                                "type": {
                                    "coding": [
                                        {
                                            "system": "http://hl7.org/fhir/medicinal-product-name-part-type",
                                            "code": "InventedNamePart",
                                            "display": "Invented name part"
                                        }
                                    ]
                                }
                            },
                            {
                                "part": "500 mg",
                                "type": {
                                    "coding": [
                                        {
                                            "system": "http://hl7.org/fhir/medicinal-product-name-part-type",
                                            "code": "StrengthPart",
                                            "display": "Strength part"
                                        }
                                    ]
                                }
                            },
                            {
                                "part": "tablets",
                                "type": {
                                    "coding": [
                                        {
                                            "system": "http://hl7.org/fhir/medicinal-product-name-part-type",
                                            "code": "DoseFormPart",
                                            "display": "Pharmaceutical dose form part"
                                        }
                                    ]
                                }
                            }
                        ],
                        "usage": [
                            {
                                "country": {
                                    "coding": [
                                        {
                                            "system": "urn:iso:std:iso:3166",
                                            "code": "EE",
                                            "display": "Estonia"
                                        }
                                    ]
                                },
                                "language": {
                                    "coding": [
                                        {
                                            "system": "urn:ietf:bcp:47",
                                            "code": "et",
                                            "display": "Estonian"
                                        }
                                    ]
                                }
                            }
                        ]
                    }
                ],
                "contact": [
                    {
                        "contact": {
                            "reference": "Organization/org-epi-type3-example-pharma"
                        }
                    }
                ]
            }
        },
        {
            "fullUrl": "http://hl7.org/fhir/uv/emedicinal-product-info/MedicinalProductDefinition/mpd-epi-type2-example-paracetamol-100mg",
            "resource": {
                "resourceType": "MedicinalProductDefinition",
                "id": "mpd-epi-type2-example-paracetamol-100mg",
                "meta": {
                    "profile": [
                        "http://hl7.org/fhir/uv/emedicinal-product-info/StructureDefinition/MedicinalProductDefinition-uv-epi"
                    ]
                },
                "identifier": [
                    {
                        "system": "http://ema.europa.eu/identifier",
                        "value": "WONDERDRUG-100MG"
                    }
                ],
                "name": [
                    {
                        "productName": "WonderDrug 100 mg tablets",
                        "part": [
                            {
                                "part": "WonderDrug 100 mg tablets",
                                "type": {
                                    "coding": [
                                        {
                                            "system": "http://hl7.org/fhir/medicinal-product-name-part-type",
                                            "code": "InventedNamePart",
                                            "display": "Invented name part"
                                        }
                                    ]
                                }
                            }
                        ]
                    }
                ],
                "status": {
                    "coding": [
                        {
                            "system": "http://hl7.org/fhir/publication-status",
                            "code": "active"
                        }
                    ]
                }
            }
        },
        {
            "fullUrl": "http://hl7.org/fhir/uv/emedicinal-product-info/MedicinalProductDefinition/mpd-epi-type2-example-paracetamol-200mg",
            "resource": {
                "resourceType": "MedicinalProductDefinition",
                "id": "mpd-epi-type2-example-paracetamol-200mg",
                "meta": {
                    "profile": [
                        "http://hl7.org/fhir/uv/emedicinal-product-info/StructureDefinition/MedicinalProductDefinition-uv-epi"
                    ]
                },
                "identifier": [
                    {
                        "system": "http://ema.europa.eu/identifier",
                        "value": "WONDERDRUG-200MG"
                    }
                ],
                "name": [
                    {
                        "productName": "WonderDrug 200 mg tablets",
                        "part": [
                            {
                                "part": "WonderDrug 200 mg tablets",
                                "type": {
                                    "coding": [
                                        {
                                            "system": "http://hl7.org/fhir/medicinal-product-name-part-type",
                                            "code": "InventedNamePart",
                                            "display": "Invented name part"
                                        }
                                    ]
                                }
                            }
                        ]
                    }
                ],
                "status": {
                    "coding": [
                        {
                            "system": "http://hl7.org/fhir/publication-status",
                            "code": "active"
                        }
                    ]
                }
            }
        },
        {
            "fullUrl": "http://hl7.org/fhir/uv/emedicinal-product-info/ClinicalUseDefinition/cud-indication-1",
            "resource": {
                "resourceType": "ClinicalUseDefinition",
                "id": "cud-indication-1",
                "meta": {
                    "profile": [
                        "http://hl7.org/fhir/uv/emedicinal-product-info/StructureDefinition/ClinicalUseDefinition-indication-uv-epi"
                    ]
                },
                "identifier": [
                    {
                        "system": "http://example.org/identifier",
                        "value": "cud-indication-1"
                    }
                ],
                "status": {
                    "coding": [
                        {
                            "system": "http://hl7.org/fhir/publication-status",
                            "code": "active",
                            "display": "Active"
                        }
                    ]
                },
                "type": "indication",
                "subject": [
                    {
                        "reference": "MedicinalProductDefinition/mpd-epi-type3-example-wonderdrug"
                    }
                ],
                "population": [
                    {
                        "display": "Adults"
                    }
                ],
                "indication": {
                    "diseaseSymptomProcedure": {
                        "concept": {
                            "coding": [
                                {
                                    "system": "http://snomed.info/sct",
                                    "code": "386661006",
                                    "display": "Fever"
                                }
                            ]
                        }
                    }
                },
                "category": [
                    {
                        "coding": [
                            {
                                "system": "http://hl7.org/fhir/uv/emedicinal-product-info/CodeSystem/epi-ig",
                                "code": "indication",
                                "display": "Indication"
                            }
                        ]
                    }
                ]
            }
        },
        {
            "fullUrl": "http://hl7.org/fhir/uv/emedicinal-product-info/ClinicalUseDefinition/cud-indication-2",
            "resource": {
                "resourceType": "ClinicalUseDefinition",
                "id": "cud-indication-2",
                "meta": {
                    "profile": [
                        "http://hl7.org/fhir/uv/emedicinal-product-info/StructureDefinition/ClinicalUseDefinition-indication-uv-epi"
                    ]
                },
                "identifier": [
                    {
                        "system": "http://example.org/identifier",
                        "value": "cud-indication-2"
                    }
                ],
                "status": {
                    "coding": [
                        {
                            "system": "http://hl7.org/fhir/publication-status",
                            "code": "active",
                            "display": "Active"
                        }
                    ]
                },
                "type": "indication",
                "subject": [
                    {
                        "reference": "MedicinalProductDefinition/mpd-epi-type3-example-wonderdrug"
                    }
                ],
                "population": [
                    {
                        "display": "Adults"
                    }
                ],
                "indication": {
                    "diseaseSymptomProcedure": {
                        "concept": {
                            "coding": [
                                {
                                    "system": "http://snomed.info/sct",
                                    "code": "22253000",
                                    "display": "Pain"
                                }
                            ]
                        }
                    }
                },
                "category": [
                    {
                        "coding": [
                            {
                                "system": "http://hl7.org/fhir/uv/emedicinal-product-info/CodeSystem/epi-ig",
                                "code": "indication",
                                "display": "Indication"
                            }
                        ]
                    }
                ]
            }
        },
        {
            "fullUrl": "http://hl7.org/fhir/uv/emedicinal-product-info/ClinicalUseDefinition/cud-contraindication-1",
            "resource": {
                "resourceType": "ClinicalUseDefinition",
                "id": "cud-contraindication-1",
                "meta": {
                    "profile": [
                        "http://hl7.org/fhir/uv/emedicinal-product-info/StructureDefinition/ClinicalUseDefinition-contraindication-uv-epi"
                    ]
                },
                "identifier": [
                    {
                        "system": "http://example.org/identifier",
                        "value": "cud-contraindication-1"
                    }
                ],
                "status": {
                    "coding": [
                        {
                            "system": "http://hl7.org/fhir/publication-status",
                            "code": "active",
                            "display": "Active"
                        }
                    ]
                },
                "type": "contraindication",
                "subject": [
                    {
                        "reference": "MedicinalProductDefinition/mpd-epi-type3-example-wonderdrug"
                    }
                ],
                "population": [
                    {
                        "display": "Adults"
                    }
                ],
                "contraindication": {
                    "diseaseSymptomProcedure": {
                        "concept": {
                            "coding": [
                                {
                                    "system": "http://snomed.info/sct",
                                    "code": "197270009",
                                    "display": "Acute hepatic failure"
                                }
                            ]
                        }
                    }
                },
                "category": [
                    {
                        "coding": [
                            {
                                "system": "http://hl7.org/fhir/uv/emedicinal-product-info/CodeSystem/epi-ig",
                                "code": "contraindication",
                                "display": "Contraindication"
                            }
                        ]
                    }
                ]
            }
        },
        {
            "fullUrl": "http://hl7.org/fhir/uv/emedicinal-product-info/ClinicalUseDefinition/cud-contraindication-2",
            "resource": {
                "resourceType": "ClinicalUseDefinition",
                "id": "cud-contraindication-2",
                "meta": {
                    "profile": [
                        "http://hl7.org/fhir/uv/emedicinal-product-info/StructureDefinition/ClinicalUseDefinition-contraindication-uv-epi"
                    ]
                },
                "identifier": [
                    {
                        "system": "http://example.org/identifier",
                        "value": "cud-contraindication-2"
                    }
                ],
                "status": {
                    "coding": [
                        {
                            "system": "http://hl7.org/fhir/publication-status",
                            "code": "active",
                            "display": "Active"
                        }
                    ]
                },
                "type": "contraindication",
                "subject": [
                    {
                        "reference": "MedicinalProductDefinition/mpd-epi-type3-example-wonderdrug"
                    }
                ],
                "population": [
                    {
                        "display": "Adults"
                    }
                ],
                "contraindication": {
                    "otherTherapy": [
                        {
                            "treatment": {
                                "concept": {
                                    "coding": [
                                        {
                                            "system": "http://snomed.info/sct",
                                            "code": "763158003",
                                            "display": "Medicinal product containing paracetamol"
                                        }
                                    ]
                                }
                            },
                            "relationshipType": {
                                "coding": [
                                    {
                                        "system": "http://hl7.org/fhir/benefit-and-risk-relationship",
                                        "code": "contraindicated-only-with",
                                        "display": "Only contraindicated with"
                                    }
                                ]
                            }
                        }
                    ]
                },
                "category": [
                    {
                        "coding": [
                            {
                                "system": "http://hl7.org/fhir/uv/emedicinal-product-info/CodeSystem/epi-ig",
                                "code": "contraindication",
                                "display": "Contraindication"
                            }
                        ]
                    }
                ]
            }
        },
        {
            "fullUrl": "http://hl7.org/fhir/uv/emedicinal-product-info/ClinicalUseDefinition/cud-interaction-1",
            "resource": {
                "resourceType": "ClinicalUseDefinition",
                "id": "cud-interaction-1",
                "meta": {
                    "profile": [
                        "http://hl7.org/fhir/uv/emedicinal-product-info/StructureDefinition/ClinicalUseDefinition-interaction-uv-epi"
                    ]
                },
                "identifier": [
                    {
                        "system": "http://example.org/identifier",
                        "value": "cud-interaction-1"
                    }
                ],
                "status": {
                    "coding": [
                        {
                            "system": "http://hl7.org/fhir/publication-status",
                            "code": "active",
                            "display": "Active"
                        }
                    ]
                },
                "type": "interaction",
                "subject": [
                    {
                        "reference": "MedicinalProductDefinition/mpd-epi-type3-example-wonderdrug"
                    }
                ],
                "population": [
                    {
                        "display": "Adults"
                    }
                ],
                "interaction": {
                    "interactant": [
                        {
                            "itemCodeableConcept": {
                                "coding": [
                                    {
                                        "system": "http://snomed.info/sct",
                                        "code": "372756006",
                                        "display": "Warfarin"
                                    }
                                ]
                            }
                        }
                    ],
                    "effect": {
                        "concept": {
                            "coding": [
                                {
                                    "system": "http://snomed.info/sct",
                                    "code": "404684003",
                                    "display": "Enhanced anticoagulant effect"
                                }
                            ]
                        }
                    }
                },
                "category": [
                    {
                        "coding": [
                            {
                                "system": "http://hl7.org/fhir/uv/emedicinal-product-info/CodeSystem/epi-ig",
                                "code": "interaction",
                                "display": "Interaction"
                            }
                        ]
                    }
                ]
            }
        },
        {
            "fullUrl": "http://hl7.org/fhir/uv/emedicinal-product-info/ClinicalUseDefinition/cud-interaction-2",
            "resource": {
                "resourceType": "ClinicalUseDefinition",
                "id": "cud-interaction-2",
                "meta": {
                    "profile": [
                        "http://hl7.org/fhir/uv/emedicinal-product-info/StructureDefinition/ClinicalUseDefinition-interaction-uv-epi"
                    ]
                },
                "identifier": [
                    {
                        "system": "http://example.org/identifier",
                        "value": "cud-interaction-2"
                    }
                ],
                "status": {
                    "coding": [
                        {
                            "system": "http://hl7.org/fhir/publication-status",
                            "code": "active",
                            "display": "Active"
                        }
                    ]
                },
                "type": "interaction",
                "subject": [
                    {
                        "reference": "MedicinalProductDefinition/mpd-epi-type3-example-wonderdrug"
                    }
                ],
                "population": [
                    {
                        "display": "Adults"
                    }
                ],
                "interaction": {
                    "interactant": [
                        {
                            "itemCodeableConcept": {
                                "coding": [
                                    {
                                        "system": "http://www.nlm.nih.gov/research/umls/rxnorm",
                                        "code": "2341",
                                        "display": "Chloramphenicol"
                                    }
                                ]
                            }
                        }
                    ]
                },
                "category": [
                    {
                        "coding": [
                            {
                                "system": "http://hl7.org/fhir/uv/emedicinal-product-info/CodeSystem/epi-ig",
                                "code": "interaction",
                                "display": "Interaction"
                            }
                        ]
                    }
                ]
            }
        },
        {
            "fullUrl": "http://hl7.org/fhir/uv/emedicinal-product-info/ClinicalUseDefinition/cud-undesirable-effect-1",
            "resource": {
                "resourceType": "ClinicalUseDefinition",
                "id": "cud-undesirable-effect-1",
                "meta": {
                    "profile": [
                        "http://hl7.org/fhir/uv/emedicinal-product-info/StructureDefinition/ClinicalUseDefinition-undesirable-effect-uv-epi"
                    ]
                },
                "identifier": [
                    {
                        "system": "http://example.org/identifier",
                        "value": "cud-undesirable-effect-1"
                    }
                ],
                "status": {
                    "coding": [
                        {
                            "system": "http://hl7.org/fhir/publication-status",
                            "code": "active",
                            "display": "Active"
                        }
                    ]
                },
                "type": "undesirable-effect",
                "subject": [
                    {
                        "reference": "MedicinalProductDefinition/mpd-epi-type3-example-wonderdrug"
                    }
                ],
                "population": [
                    {
                        "display": "Adults"
                    }
                ],
                "undesirableEffect": {
                    "symptomConditionEffect": {
                        "concept": {
                            "coding": [
                                {
                                    "system": "http://snomed.info/sct",
                                    "code": "302215000",
                                    "display": "Thrombocytopenia"
                                }
                            ]
                        }
                    }
                },
                "category": [
                    {
                        "coding": [
                            {
                                "system": "http://hl7.org/fhir/uv/emedicinal-product-info/CodeSystem/epi-ig",
                                "code": "undesirable-effect",
                                "display": "Undesirable-effect"
                            }
                        ]
                    }
                ]
            }
        },
        {
            "fullUrl": "http://hl7.org/fhir/uv/emedicinal-product-info/ClinicalUseDefinition/cud-undesirable-effect-2",
            "resource": {
                "resourceType": "ClinicalUseDefinition",
                "id": "cud-undesirable-effect-2",
                "meta": {
                    "profile": [
                        "http://hl7.org/fhir/uv/emedicinal-product-info/StructureDefinition/ClinicalUseDefinition-undesirable-effect-uv-epi"
                    ]
                },
                "identifier": [
                    {
                        "system": "http://example.org/identifier",
                        "value": "cud-undesirable-effect-2"
                    }
                ],
                "status": {
                    "coding": [
                        {
                            "system": "http://hl7.org/fhir/publication-status",
                            "code": "active",
                            "display": "Active"
                        }
                    ]
                },
                "type": "undesirable-effect",
                "subject": [
                    {
                        "reference": "MedicinalProductDefinition/mpd-epi-type3-example-wonderdrug"
                    }
                ],
                "population": [
                    {
                        "display": "Adults"
                    }
                ],
                "undesirableEffect": {
                    "symptomConditionEffect": {
                        "concept": {
                            "coding": [
                                {
                                    "system": "http://snomed.info/sct",
                                    "code": "62315008",
                                    "display": "Diarrhea"
                                }
                            ]
                        }
                    }
                },
                "category": [
                    {
                        "coding": [
                            {
                                "system": "http://hl7.org/fhir/uv/emedicinal-product-info/CodeSystem/epi-ig",
                                "code": "undesirable-effect",
                                "display": "Undesirable-effect"
                            }
                        ]
                    }
                ]
            }
        },
        {
            "fullUrl": "http://hl7.org/fhir/uv/emedicinal-product-info/ClinicalUseDefinition/cud-warning-1",
            "resource": {
                "resourceType": "ClinicalUseDefinition",
                "id": "cud-warning-1",
                "meta": {
                    "profile": [
                        "http://hl7.org/fhir/uv/emedicinal-product-info/StructureDefinition/ClinicalUseDefinition-warning-uv-epi"
                    ]
                },
                "identifier": [
                    {
                        "system": "http://example.org/identifier",
                        "value": "cud-warning-1"
                    }
                ],
                "status": {
                    "coding": [
                        {
                            "system": "http://hl7.org/fhir/publication-status",
                            "code": "active",
                            "display": "Active"
                        }
                    ]
                },
                "type": "warning",
                "subject": [
                    {
                        "reference": "MedicinalProductDefinition/mpd-epi-type3-example-wonderdrug"
                    }
                ],
                "population": [
                    {
                        "display": "Adults"
                    }
                ],
                "warning": {
                    "description": "Do not exceed the stated dose."
                },
                "category": [
                    {
                        "coding": [
                            {
                                "system": "http://hl7.org/fhir/uv/emedicinal-product-info/CodeSystem/epi-ig",
                                "code": "warning",
                                "display": "Warning"
                            }
                        ]
                    }
                ]
            }
        },
        {
            "fullUrl": "http://hl7.org/fhir/uv/emedicinal-product-info/ClinicalUseDefinition/cud-warning-2",
            "resource": {
                "resourceType": "ClinicalUseDefinition",
                "id": "cud-warning-2",
                "meta": {
                    "profile": [
                        "http://hl7.org/fhir/uv/emedicinal-product-info/StructureDefinition/ClinicalUseDefinition-warning-uv-epi"
                    ]
                },
                "identifier": [
                    {
                        "system": "http://example.org/identifier",
                        "value": "cud-warning-2"
                    }
                ],
                "status": {
                    "coding": [
                        {
                            "system": "http://hl7.org/fhir/publication-status",
                            "code": "active",
                            "display": "Active"
                        }
                    ]
                },
                "type": "warning",
                "subject": [
                    {
                        "reference": "MedicinalProductDefinition/mpd-epi-type3-example-wonderdrug"
                    }
                ],
                "population": [
                    {
                        "display": "Adults"
                    }
                ],
                "warning": {
                    "description": "Keep out of the sight and reach of children."
                },
                "category": [
                    {
                        "coding": [
                            {
                                "system": "http://hl7.org/fhir/uv/emedicinal-product-info/CodeSystem/epi-ig",
                                "code": "warning",
                                "display": "Warning"
                            }
                        ]
                    }
                ]
            }
        },
        {
            "fullUrl": "http://hl7.org/fhir/uv/emedicinal-product-info/RegulatedAuthorization/ra-epi-type2-example-paracetamol",
            "resource": {
                "resourceType": "RegulatedAuthorization",
                "id": "ra-epi-type2-example-paracetamol",
                "meta": {
                    "profile": [
                        "http://hl7.org/fhir/uv/emedicinal-product-info/StructureDefinition/RegulatedAuthorization-uv-epi"
                    ]
                },
                "identifier": [
                    {
                        "system": "http://ema.europa.eu/identifier",
                        "value": "MA-123456789"
                    }
                ],
                "status": {
                    "coding": [
                        {
                            "system": "http://hl7.org/fhir/publication-status",
                            "code": "active",
                            "display": "Active"
                        }
                    ]
                },
                "subject": [
                    {
                        "reference": "MedicinalProductDefinition/mpd-epi-type3-example-wonderdrug"
                    }
                ],
                "type": {
                    "coding": [
                        {
                            "system": "https://spor.ema.europa.eu/rmswi",
                            "code": "220000000061",
                            "display": "Marketing Authorisation"
                        }
                    ]
                },
                "region": [
                    {
                        "coding": [
                            {
                                "system": "urn:iso:std:iso:3166",
                                "code": "EE",
                                "display": "Estonia"
                            }
                        ]
                    }
                ],
                "holder": {
                    "reference": "Organization/org-epi-type3-example-pharma"
                }
            }
        },
        {
            "fullUrl": "http://hl7.org/fhir/uv/emedicinal-product-info/PackagedProductDefinition/ppd-epi-type2-example-paracetamol",
            "resource": {
                "resourceType": "PackagedProductDefinition",
                "id": "ppd-epi-type2-example-paracetamol",
                "meta": {
                    "profile": [
                        "http://hl7.org/fhir/uv/emedicinal-product-info/StructureDefinition/PackagedProductDefinition-uv-epi"
                    ]
                },
                "identifier": [
                    {
                        "system": "http://example.org/identifier",
                        "value": "ppd-epi-type2-example-paracetamol"
                    }
                ],
                "status": {
                    "coding": [
                        {
                            "system": "http://hl7.org/fhir/publication-status",
                            "code": "active"
                        }
                    ]
                },
                "packageFor": [
                    {
                        "reference": "MedicinalProductDefinition/mpd-epi-type3-example-wonderdrug"
                    }
                ],
                "packaging": {
                    "type": {
                        "coding": [
                            {
                                "system": "https://spor.ema.europa.eu/rmswi",
                                "code": "100000073498",
                                "display": "Box"
                            }
                        ]
                    },
                    "quantity": 1,
                    "packaging": [
                        {
                            "type": {
                                "coding": [
                                    {
                                        "system": "https://spor.ema.europa.eu/rmswi",
                                        "code": "100000073496",
                                        "display": "Blister"
                                    }
                                ]
                            },
                            "containedItem": [
                                {
                                    "item": {
                                        "reference": {
                                            "reference": "ManufacturedItemDefinition/mid-epi-type2-example-paracetamol"
                                        }
                                    },
                                    "amount": {
                                        "value": 30,
                                        "unit": "Tablet",
                                        "system": "http://standardterms.edqm.eu"
                                    }
                                }
                            ]
                        }
                    ]
                }
            }
        },
        {
            "fullUrl": "http://hl7.org/fhir/uv/emedicinal-product-info/ManufacturedItemDefinition/mid-epi-type2-example-paracetamol",
            "resource": {
                "resourceType": "ManufacturedItemDefinition",
                "id": "mid-epi-type2-example-paracetamol",
                "meta": {
                    "profile": [
                        "http://hl7.org/fhir/uv/emedicinal-product-info/StructureDefinition/ManufacturedItemDefinition-uv-epi"
                    ]
                },
                "identifier": [
                    {
                        "system": "http://example.org/identifier",
                        "value": "mid-epi-type2-example-paracetamol"
                    }
                ],
                "status": "active",
                "manufacturedDoseForm": {
                    "coding": [
                        {
                            "system": "https://spor.ema.europa.eu/rmswi",
                            "code": "100000073664",
                            "display": "Tablet"
                        }
                    ]
                },
                "unitOfPresentation": {
                    "coding": [
                        {
                            "system": "https://spor.ema.europa.eu/rmswi",
                            "code": "200000002152",
                            "display": "Tablet"
                        }
                    ]
                },
                "property": [
                    {
                        "type": {
                            "coding": [
                                {
                                    "system": "http://terminology.hl7.org/CodeSystem/medicationknowledge-characteristic",
                                    "code": "color"
                                }
                            ]
                        },
                        "valueCodeableConcept": {
                            "coding": [
                                {
                                    "system": "http://ncithesaurus.nci.nih.gov",
                                    "code": "C48325",
                                    "display": "White"
                                }
                            ]
                        }
                    }
                ]
            }
        },
        {
            "fullUrl": "http://hl7.org/fhir/uv/emedicinal-product-info/AdministrableProductDefinition/apd-epi-type2-example-paracetamol",
            "resource": {
                "resourceType": "AdministrableProductDefinition",
                "id": "apd-epi-type2-example-paracetamol",
                "meta": {
                    "profile": [
                        "http://hl7.org/fhir/uv/emedicinal-product-info/StructureDefinition/AdministrableProductDefinition-uv-epi"
                    ]
                },
                "identifier": [
                    {
                        "system": "http://example.org/identifier",
                        "value": "apd-epi-type2-example-paracetamol"
                    }
                ],
                "status": "active",
                "formOf": [
                    {
                        "reference": "MedicinalProductDefinition/mpd-epi-type3-example-wonderdrug"
                    }
                ],
                "administrableDoseForm": {
                    "coding": [
                        {
                            "system": "https://spor.ema.europa.eu/rmswi",
                            "code": "100000073664",
                            "display": "Tablet"
                        }
                    ]
                },
                "unitOfPresentation": {
                    "coding": [
                        {
                            "system": "https://spor.ema.europa.eu/rmswi",
                            "code": "200000002152",
                            "display": "Tablet"
                        }
                    ]
                },
                "producedFrom": [
                    {
                        "reference": "ManufacturedItemDefinition/mid-epi-type2-example-paracetamol"
                    }
                ],
                "routeOfAdministration": [
                    {
                        "code": {
                            "coding": [
                                {
                                    "system": "https://spor.ema.europa.eu/rmswi",
                                    "code": "100000073619",
                                    "display": "Oral use"
                                }
                            ]
                        }
                    }
                ]
            }
        },
        {
            "fullUrl": "http://hl7.org/fhir/uv/emedicinal-product-info/Ingredient/ingredient-epi-type2-example-paracetamol-active",
            "resource": {
                "resourceType": "Ingredient",
                "id": "ingredient-epi-type2-example-paracetamol-active",
                "meta": {
                    "profile": [
                        "http://hl7.org/fhir/uv/emedicinal-product-info/StructureDefinition/Ingredient-uv-epi"
                    ]
                },
                "identifier": {
                    "system": "http://example.org/identifier",
                    "value": "ingredient-epi-type2-example-paracetamol-active"
                },
                "status": "active",
                "for": [
                    {
                        "reference": "ManufacturedItemDefinition/mid-epi-type2-example-paracetamol"
                    }
                ],
                "role": {
                    "coding": [
                        {
                            "system": "https://spor.ema.europa.eu/rmswi",
                            "code": "100000072072",
                            "display": "Active"
                        }
                    ]
                },
                "substance": {
                    "code": {
                        "concept": {
                            "coding": [
                                {
                                    "system": "https://spor.ema.europa.eu/smswi",
                                    "code": "100000000000",
                                    "display": "Paracetamol"
                                }
                            ]
                        }
                    },
                    "strength": [
                        {
                            "presentationRatio": {
                                "numerator": {
                                    "value": 500,
                                    "unit": "mg",
                                    "system": "http://unitsofmeasure.org",
                                    "code": "mg"
                                },
                                "denominator": {
                                    "value": 1,
                                    "unit": "Tablet",
                                    "system": "http://standardterms.edqm.eu",
                                    "code": "10219000"
                                }
                            }
                        }
                    ]
                }
            }
        },
        {
            "fullUrl": "http://hl7.org/fhir/uv/emedicinal-product-info/MedicationKnowledge/medication-knowledge-epi-type3-example",
            "resource": {
                "resourceType": "MedicationKnowledge",
                "id": "medication-knowledge-epi-type3-example",
                "meta": {
                    "profile": [
                        "http://hl7.org/fhir/uv/emedicinal-product-info/StructureDefinition/MedicationKnowledge-uv-epi"
                    ]
                },
                "status": "active",
                "code": {
                    "coding": [
                        {
                            "system": "http://snomed.info/sct",
                            "code": "387517004",
                            "display": "Paracetamol"
                        }
                    ]
                },
                "indicationGuideline": [
                    {
                        "dosingGuideline": [
                            {
                                "treatmentIntent": {
                                    "coding": [
                                        {
                                            "system": "http://snomed.info/sct",
                                            "code": "386661006",
                                            "display": "Fever"
                                        }
                                    ]
                                },
                                "dosage": [
                                    {
                                        "type": {
                                            "coding": [
                                                {
                                                    "system": "http://terminology.hl7.org/CodeSystem/dose-rate-type",
                                                    "code": "ordered"
                                                }
                                            ]
                                        },
                                        "dosage": [
                                            {
                                                "text": "1 tablet every 4 to 6 hours"
                                            }
                                        ]
                                    }
                                ]
                            }
                        ]
                    }
                ]
            }
        }
    ]
}