{
    "resourceType": "Bundle",
    "id": "bundle-epi-type2-example-acetaminophen",
    "type": "document",
    "timestamp": "2023-01-25T12:00:00Z",
    "identifier": {
        "system": "http://ema.europa.eu/identifier",
        "value": "WONDERDRUG-500MG-BUNDLE"
    },
    "entry": [
        {
            "fullUrl": "http://hl7.org/fhir/uv/emedicinal-product-info/Composition/composition-epi-type2-example-acetaminophen",
            "resource": {
                "resourceType": "Composition",
                "id": "composition-epi-type2-example-acetaminophen",
                "status": "final",
                "type": {
                    "coding": [
                        {
                            "system": "https://spor.ema.europa.eu/rmswi/",
                            "code": "100000155538"
                        }
                    ],
                    "text": "Package Leaflet"
                },
                "subject": [
                    {
                        "reference": "MedicinalProductDefinition/mpd-epi-type2-example-acetaminophen"
                    },
                    {
                        "reference": "MedicinalProductDefinition/mpd-epi-type2-example-acetaminophen-100mg"
                    },
                    {
                        "reference": "MedicinalProductDefinition/mpd-epi-type2-example-acetaminophen-200mg"
                    }
                ],
                "date": "2023-01-25",
                "author": [
                    {
                        "reference": "Organization/org-epi-type2-example-acme"
                    }
                ],
                "title": "Package Leaflet: Information for the user - WonderDrug 500 mg tablets",
                "section": [
                    {
                        "title": "1. What is in this leaflet",
                        "code": {
                            "coding": [
                                {
                                    "system": "https://spor.ema.europa.eu/rmswi/",
                                    "code": "100000155538"
                                }
                            ],
                            "text": "1. What is in this leaflet"
                        },
                        "text": {
                            "status": "generated",
                            "div": "<div xmlns=\"http://www.w3.org/1999/xhtml\"><h2>1. What is in this leaflet</h2><p>Read all of this leaflet carefully before you start taking this medicine because it contains important information for you.</p></div>"
                        }
                    }
                ]
            }
        },
        {
            "fullUrl": "http://hl7.org/fhir/uv/emedicinal-product-info/Organization/org-epi-type2-example-acme",
            "resource": {
                "resourceType": "Organization",
                "id": "org-epi-type2-example-acme",
                "identifier": [
                    {
                        "system": "https://spor.ema.europa.eu/omswi",
                        "value": "LOC-100000000"
                    }
                ],
                "active": true,
                "type": [
                    {
                        "coding": [
                            {
                                "system": "https://spor.ema.europa.eu/rmswi",
                                "code": "220000000034",
                                "display": "Marketing authorisation holder"
                            }
                        ]
                    }
                ],
                "name": "Acme Pharma Inc.",
                "contact": [
                    {
                        "address": {
                            "text": "123 Pharma Way, 102 37 Prague 10, Czech Republic",
                            "line": [
                                "123 Pharma Way"
                            ],
                            "city": "Prague",
                            "postalCode": "102 37",
                            "country": "Czech Republic"
                        }
                    }
                ]
            }
        },
        {
            "fullUrl": "http://hl7.org/fhir/uv/emedicinal-product-info/MedicinalProductDefinition/mpd-epi-type2-example-acetaminophen",
            "resource": {
                "resourceType": "MedicinalProductDefinition",
                "id": "mpd-epi-type2-example-acetaminophen",
                "identifier": [
                    {
                        "system": "http://ema.europa.eu/identifier",
                        "value": "WONDERDRUG-500MG"
                    }
                ],
                "domain": {
                    "coding": [
                        {
                            "system": "http://hl7.org/fhir/medicinal-product-domain",
                            "code": "Human",
                            "display": "Human use"
                        }
                    ]
                },
                "status": {
                    "coding": [
                        {
                            "system": "http://hl7.org/fhir/publication-status",
                            "code": "active",
                            "display": "Active"
                        }
                    ]
                },
                "legalStatusOfSupply": {
                    "coding": [
                        {
                            "system": "https://spor.ema.europa.eu/rmswi",
                            "code": "100000072084",
                            "display": "Medicinal product subject to medical prescription"
                        }
                    ]
                },
                "name": [
                    {
                        "productName": "WonderDrug 500 mg tablets",
                        "part": [
                            {
                                "part": "WonderDrug",
                                "type": {
                                    "coding": [
                                        {
                                            "system": "http://hl7.org/fhir/medicinal-product-name-part-type",
                                            "code": "INV",
                                            "display": "Invented Name Part"
                                        }
                                    ]
                                }
                            },
                            {
                                "part": "500 mg",
                                "type": {
                                    "coding": [
                                        {
                                            "system": "http://hl7.org/fhir/medicinal-product-name-part-type",
                                            "code": "STR",
                                            "display": "Strength part"
                                        }
                                    ]
                                }
                            },
                            {
                                "part": "tablets",
                                "type": {
                                    "coding": [
                                        {
                                            "system": "http://hl7.org/fhir/medicinal-product-name-part-type",
                                            "code": "FRM",
                                            "display": "Form part"
                                        }
                                    ]
                                }
                            }
                        ],
                        "usage": [
                            {
                                "country": {
                                    "coding": [
                                        {
                                            "system": "http://hl7.org/fhir/country",
                                            "code": "EE",
                                            "display": "Estonia"
                                        }
                                    ]
                                },
                                "language": {
                                    "coding": [
                                        {
                                            "system": "urn:ietf:bcp:47",
                                            "code": "et",
                                            "display": "Estonian"
                                        }
                                    ]
                                }
                            }
                        ]
                    }
                ],
                "contact": [
                    {
                        "contact": {
                            "reference": "Organization/org-epi-type2-example-acme"
                        }
                    }
                ]
            }
        },
        {
            "fullUrl": "http://hl7.org/fhir/uv/emedicinal-product-info/RegulatedAuthorization/ra-epi-type2-example-acetaminophen",
            "resource": {
                "resourceType": "RegulatedAuthorization",
                "id": "ra-epi-type2-example-acetaminophen",
                "identifier": [
                    {
                        "system": "http://ema.europa.eu/identifier",
                        "value": "MA-123456789"
                    }
                ],
                "subject": [
                    {
                        "reference": "MedicinalProductDefinition/mpd-epi-type2-example-acetaminophen"
                    }
                ],
                "type": {
                    "coding": [
                        {
                            "system": "https://spor.ema.europa.eu/rmswi",
                            "code": "220000000061",
                            "display": "Marketing Authorisation"
                        }
                    ]
                },
                "region": [
                    {
                        "coding": [
                            {
                                "system": "http://hl7.org/fhir/country",
                                "code": "EE",
                                "display": "Estonia"
                            }
                        ]
                    }
                ],
                "holder": {
                    "reference": "Organization/org-epi-type2-example-acme"
                }
            }
        },
        {
            "fullUrl": "http://hl7.org/fhir/uv/emedicinal-product-info/PackagedProductDefinition/ppd-epi-type2-example-acetaminophen",
            "resource": {
                "resourceType": "PackagedProductDefinition",
                "id": "ppd-epi-type2-example-acetaminophen",
                "packageFor": [
                    {
                        "reference": "MedicinalProductDefinition/mpd-epi-type2-example-acetaminophen"
                    }
                ],
                "packaging": {
                    "type": {
                        "coding": [
                            {
                                "system": "https://spor.ema.europa.eu/rmswi",
                                "code": "100000073498",
                                "display": "Box"
                            }
                        ]
                    },
                    "quantity": 1,
                    "packaging": [
                        {
                            "type": {
                                "coding": [
                                    {
                                        "system": "https://spor.ema.europa.eu/rmswi",
                                        "code": "100000073496",
                                        "display": "Blister"
                                    }
                                ]
                            },
                            "containedItem": [
                                {
                                    "item": {
                                        "reference": {
                                            "reference": "ManufacturedItemDefinition/mid-epi-type2-example-acetaminophen"
                                        }
                                    },
                                    "amount": {
                                        "value": 30,
                                        "unit": "Tablet",
                                        "system": "http://hl7.org/fhir/uv/emedicinal-product-info/CodeSystem/unit-of-presentation"
                                    }
                                }
                            ]
                        }
                    ]
                }
            }
        },
        {
            "fullUrl": "http://hl7.org/fhir/uv/emedicinal-product-info/ManufacturedItemDefinition/mid-epi-type2-example-acetaminophen",
            "resource": {
                "resourceType": "ManufacturedItemDefinition",
                "id": "mid-epi-type2-example-acetaminophen",
                "status": "active",
                "manufacturedDoseForm": {
                    "coding": [
                        {
                            "system": "https://spor.ema.europa.eu/rmswi",
                            "code": "100000073664",
                            "display": "Tablet"
                        }
                    ]
                },
                "unitOfPresentation": {
                    "coding": [
                        {
                            "system": "https://spor.ema.europa.eu/rmswi",
                            "code": "200000002152",
                            "display": "Tablet"
                        }
                    ]
                },
                "property": [
                    {
                        "type": {
                            "coding": [
                                {
                                    "code": "colour"
                                }
                            ]
                        },
                        "valueCodeableConcept": {
                            "coding": [
                                {
                                    "system": "http://hl7.org/fhir/colour",
                                    "code": "white",
                                    "display": "White"
                                }
                            ]
                        }
                    }
                ]
            }
        },
        {
            "fullUrl": "http://hl7.org/fhir/uv/emedicinal-product-info/AdministrableProductDefinition/apd-epi-type2-example-acetaminophen",
            "resource": {
                "resourceType": "AdministrableProductDefinition",
                "id": "apd-epi-type2-example-acetaminophen",
                "status": "active",
                "formOf": [
                    {
                        "reference": "MedicinalProductDefinition/mpd-epi-type2-example-acetaminophen"
                    }
                ],
                "administrableDoseForm": {
                    "coding": [
                        {
                            "system": "https://spor.ema.europa.eu/rmswi",
                            "code": "100000073664",
                            "display": "Tablet"
                        }
                    ]
                },
                "unitOfPresentation": {
                    "coding": [
                        {
                            "system": "https://spor.ema.europa.eu/rmswi",
                            "code": "200000002152",
                            "display": "Tablet"
                        }
                    ]
                },
                "producedFrom": [
                    {
                        "reference": "ManufacturedItemDefinition/mid-epi-type2-example-acetaminophen"
                    }
                ],
                "routeOfAdministration": [
                    {
                        "code": {
                            "coding": [
                                {
                                    "system": "https://spor.ema.europa.eu/rmswi",
                                    "code": "100000073619",
                                    "display": "Oral use"
                                }
                            ]
                        }
                    }
                ]
            }
        },
        {
            "fullUrl": "http://hl7.org/fhir/uv/emedicinal-product-info/Ingredient/ingredient-epi-type2-example-acetaminophen-active",
            "resource": {
                "resourceType": "Ingredient",
                "id": "ingredient-epi-type2-example-acetaminophen-active",
                "status": "active",
                "for": [
                    {
                        "reference": "MedicinalProductDefinition/mpd-epi-type2-example-acetaminophen"
                    },
                    {
                        "reference": "ManufacturedItemDefinition/mid-epi-type2-example-acetaminophen"
                    },
                    {
                        "reference": "AdministrableProductDefinition/apd-epi-type2-example-acetaminophen"
                    }
                ],
                "role": {
                    "coding": [
                        {
                            "system": "https://spor.ema.europa.eu/rmswi",
                            "code": "100000072072",
                            "display": "Active"
                        }
                    ]
                },
                "substance": {
                    "code": {
                        "concept": {
                            "coding": [
                                {
                                    "system": "https://spor.ema.europa.eu/smswi",
                                    "code": "100000000000",
                                    "display": "Acetaminophen"
                                }
                            ]
                        }
                    },
                    "strength": [
                        {
                            "presentationRatio": {
                                "numerator": {
                                    "value": 500,
                                    "unit": "mg",
                                    "system": "http://unitsofmeasure.org",
                                    "code": "mg"
                                },
                                "denominator": {
                                    "value": 1,
                                    "unit": "tablet",
                                    "system": "http://hl7.org/fhir/uv/emedicinal-product-info/CodeSystem/unit-of-presentation",
                                    "code": "tablet"
                                }
                            }
                        }
                    ]
                }
            }
        },
        {
            "fullUrl": "http://hl7.org/fhir/uv/emedicinal-product-info/Ingredient/ingredient-epi-type2-example-acetaminophen-excipient-1",
            "resource": {
                "resourceType": "Ingredient",
                "id": "ingredient-epi-type2-example-acetaminophen-excipient-1",
                "status": "active",
                "for": [
                    {
                        "reference": "MedicinalProductDefinition/mpd-epi-type2-example-acetaminophen"
                    },
                    {
                        "reference": "ManufacturedItemDefinition/mid-epi-type2-example-acetaminophen"
                    },
                    {
                        "reference": "AdministrableProductDefinition/apd-epi-type2-example-acetaminophen"
                    }
                ],
                "role": {
                    "coding": [
                        {
                            "system": "https://spor.ema.europa.eu/rmswi",
                            "code": "100000072082",
                            "display": "Excipient"
                        }
                    ]
                },
                "substance": {
                    "code": {
                        "concept": {
                            "coding": [
                                {
                                    "system": "https://spor.ema.europa.eu/smswi",
                                    "code": "100000000001",
                                    "display": "Pregelatinised starch"
                                }
                            ]
                        }
                    }
                }
            }
        },
        {
            "fullUrl": "http://hl7.org/fhir/uv/emedicinal-product-info/Ingredient/ingredient-epi-type2-example-acetaminophen-excipient-2",
            "resource": {
                "resourceType": "Ingredient",
                "id": "ingredient-epi-type2-example-acetaminophen-excipient-2",
                "status": "active",
                "for": [
                    {
                        "reference": "MedicinalProductDefinition/mpd-epi-type2-example-acetaminophen"
                    },
                    {
                        "reference": "ManufacturedItemDefinition/mid-epi-type2-example-acetaminophen"
                    },
                    {
                        "reference": "AdministrableProductDefinition/apd-epi-type2-example-acetaminophen"
                    }
                ],
                "role": {
                    "coding": [
                        {
                            "system": "https://spor.ema.europa.eu/rmswi",
                            "code": "100000072082",
                            "display": "Excipient"
                        }
                    ]
                },
                "substance": {
                    "code": {
                        "concept": {
                            "coding": [
                                {
                                    "system": "https://spor.ema.europa.eu/smswi",
                                    "code": "100000000002",
                                    "display": "Maize starch"
                                }
                            ]
                        }
                    }
                }
            }
        },
        {
            "fullUrl": "http://hl7.org/fhir/uv/emedicinal-product-info/Ingredient/ingredient-epi-type2-example-acetaminophen-excipient-3",
            "resource": {
                "resourceType": "Ingredient",
                "id": "ingredient-epi-type2-example-acetaminophen-excipient-3",
                "status": "active",
                "for": [
                    {
                        "reference": "MedicinalProductDefinition/mpd-epi-type2-example-acetaminophen"
                    },
                    {
                        "reference": "ManufacturedItemDefinition/mid-epi-type2-example-acetaminophen"
                    },
                    {
                        "reference": "AdministrableProductDefinition/apd-epi-type2-example-acetaminophen"
                    }
                ],
                "role": {
                    "coding": [
                        {
                            "system": "https://spor.ema.europa.eu/rmswi",
                            "code": "100000072082",
                            "display": "Excipient"
                        }
                    ]
                },
                "substance": {
                    "code": {
                        "concept": {
                            "coding": [
                                {
                                    "system": "https://spor.ema.europa.eu/smswi",
                                    "code": "100000000003",
                                    "display": "Magnesium stearate"
                                }
                            ]
                        }
                    }
                }
            }
        },
        {
            "resource": {
                "resourceType": "MedicinalProductDefinition",
                "id": "mpd-epi-type2-example-acetaminophen-100mg",
                "identifier": [
                    {
                        "system": "http://ema.europa.eu/identifier",
                        "value": "WONDERDRUG-100MG"
                    }
                ],
                "name": [
                    {
                        "productName": "WonderDrug 100 mg tablets",
                        "part": [
                            {
                                "part": "WonderDrug",
                                "type": {
                                    "coding": [
                                        {
                                            "system": "http://hl7.org/fhir/medicinal-product-name-part-type",
                                            "code": "INV",
                                            "display": "Invented Name Part"
                                        }
                                    ]
                                }
                            },
                            {
                                "part": "100 mg",
                                "type": {
                                    "coding": [
                                        {
                                            "system": "http://hl7.org/fhir/medicinal-product-name-part-type",
                                            "code": "STR",
                                            "display": "Strength part"
                                        }
                                    ]
                                }
                            },
                            {
                                "part": "tablets",
                                "type": {
                                    "coding": [
                                        {
                                            "system": "http://hl7.org/fhir/medicinal-product-name-part-type",
                                            "code": "FRM",
                                            "display": "Form part"
                                        }
                                    ]
                                }
                            }
                        ]
                    }
                ]
            }
        },
        {
            "resource": {
                "resourceType": "PackagedProductDefinition",
                "id": "ppd-epi-type2-example-acetaminophen-100mg-1",
                "packageFor": [
                    {
                        "reference": "MedicinalProductDefinition/mpd-epi-type2-example-acetaminophen-100mg"
                    }
                ],
                "packaging": {
                    "type": {
                        "coding": [
                            {
                                "system": "https://spor.ema.europa.eu/rmswi",
                                "code": "100000073498",
                                "display": "Box"
                            }
                        ]
                    },
                    "quantity": 1,
                    "packaging": [
                        {
                            "type": {
                                "coding": [
                                    {
                                        "system": "https://spor.ema.europa.eu/rmswi",
                                        "code": "100000073496",
                                        "display": "Blister"
                                    }
                                ]
                            },
                            "containedItem": [
                                {
                                    "item": {
                                        "reference": {
                                            "reference": "ManufacturedItemDefinition/mid-epi-type2-example-acetaminophen-100mg"
                                        }
                                    },
                                    "amount": {
                                        "value": 60,
                                        "unit": "Tablet",
                                        "system": "http://hl7.org/fhir/uv/emedicinal-product-info/CodeSystem/unit-of-presentation"
                                    }
                                }
                            ],
                            "quantity": 2
                        }
                    ]
                }
            }
        },
        {
            "resource": {
                "resourceType": "PackagedProductDefinition",
                "id": "ppd-epi-type2-example-acetaminophen-100mg-2",
                "packageFor": [
                    {
                        "reference": "MedicinalProductDefinition/mpd-epi-type2-example-acetaminophen-100mg"
                    }
                ],
                "packaging": {
                    "type": {
                        "coding": [
                            {
                                "system": "https://spor.ema.europa.eu/rmswi",
                                "code": "100000073498",
                                "display": "Box"
                            }
                        ]
                    },
                    "quantity": 1,
                    "packaging": [
                        {
                            "type": {
                                "coding": [
                                    {
                                        "system": "https://spor.ema.europa.eu/rmswi",
                                        "code": "100000073497",
                                        "display": "Bottle"
                                    }
                                ]
                            },
                            "containedItem": [
                                {
                                    "item": {
                                        "reference": {
                                            "reference": "ManufacturedItemDefinition/mid-epi-type2-example-acetaminophen-100mg"
                                        }
                                    },
                                    "amount": {
                                        "value": 30,
                                        "unit": "Tablet",
                                        "system": "http://hl7.org/fhir/uv/emedicinal-product-info/CodeSystem/unit-of-presentation"
                                    }
                                }
                            ]
                        }
                    ]
                }
            }
        },
        {
            "resource": {
                "resourceType": "MedicinalProductDefinition",
                "id": "mpd-epi-type2-example-acetaminophen-200mg",
                "identifier": [
                    {
                        "system": "http://ema.europa.eu/identifier",
                        "value": "WONDERDRUG-200MG"
                    }
                ],
                "name": [
                    {
                        "productName": "WonderDrug 200 mg tablets",
                        "part": [
                            {
                                "part": "WonderDrug",
                                "type": {
                                    "coding": [
                                        {
                                            "system": "http://hl7.org/fhir/medicinal-product-name-part-type",
                                            "code": "INV",
                                            "display": "Invented Name Part"
                                        }
                                    ]
                                }
                            },
                            {
                                "part": "200 mg",
                                "type": {
                                    "coding": [
                                        {
                                            "system": "http://hl7.org/fhir/medicinal-product-name-part-type",
                                            "code": "STR",
                                            "display": "Strength part"
                                        }
                                    ]
                                }
                            },
                            {
                                "part": "tablets",
                                "type": {
                                    "coding": [
                                        {
                                            "system": "http://hl7.org/fhir/medicinal-product-name-part-type",
                                            "code": "FRM",
                                            "display": "Form part"
                                        }
                                    ]
                                }
                            }
                        ]
                    }
                ]
            }
        },
        {
            "resource": {
                "resourceType": "PackagedProductDefinition",
                "id": "ppd-epi-type2-example-acetaminophen-200mg-1",
                "packageFor": [
                    {
                        "reference": "MedicinalProductDefinition/mpd-epi-type2-example-acetaminophen-200mg"
                    }
                ],
                "packaging": {
                    "type": {
                        "coding": [
                            {
                                "system": "https://spor.ema.europa.eu/rmswi",
                                "code": "100000073498",
                                "display": "Box"
                            }
                        ]
                    },
                    "quantity": 1,
                    "packaging": [
                        {
                            "type": {
                                "coding": [
                                    {
                                        "system": "https://spor.ema.europa.eu/rmswi",
                                        "code": "100000073496",
                                        "display": "Blister"
                                    }
                                ]
                            },
                            "containedItem": [
                                {
                                    "item": {
                                        "reference": {
                                            "reference": "ManufacturedItemDefinition/mid-epi-type2-example-acetaminophen-200mg"
                                        }
                                    },
                                    "amount": {
                                        "value": 20,
                                        "unit": "Tablet",
                                        "system": "http://hl7.org/fhir/uv/emedicinal-product-info/CodeSystem/unit-of-presentation"
                                    }
                                }
                            ],
                            "quantity": 2
                        }
                    ]
                }
            }
        },
        {
            "resource": {
                "resourceType": "PackagedProductDefinition",
                "id": "ppd-epi-type2-example-acetaminophen-200mg-2",
                "packageFor": [
                    {
                        "reference": "MedicinalProductDefinition/mpd-epi-type2-example-acetaminophen-200mg"
                    }
                ],
                "packaging": {
                    "type": {
                        "coding": [
                            {
                                "system": "https://spor.ema.europa.eu/rmswi",
                                "code": "100000073498",
                                "display": "Box"
                            }
                        ]
                    },
                    "quantity": 1,
                    "packaging": [
                        {
                            "type": {
                                "coding": [
                                    {
                                        "system": "https://spor.ema.europa.eu/rmswi",
                                        "code": "100000073497",
                                        "display": "Bottle"
                                    }
                                ]
                            },
                            "containedItem": [
                                {
                                    "item": {
                                        "reference": {
                                            "reference": "ManufacturedItemDefinition/mid-epi-type2-example-acetaminophen-200mg"
                                        }
                                    },
                                    "amount": {
                                        "value": 40,
                                        "unit": "Tablet",
                                        "system": "http://hl7.org/fhir/uv/emedicinal-product-info/CodeSystem/unit-of-presentation"
                                    }
                                }
                            ]
                        }
                    ]
                }
            }
        }
    ]
}