<?xml version="1.0" encoding="utf-8"?>
<Bundle xmlns="http://hl7.org/fhir">
  <id value="36c8b3af-25e0-ed11-a81b-6045bd9603ee" />
  <meta>
    <versionId value="1" />
    <lastUpdated value="2023-04-21T12:41:28.269+00:00" />
  </meta>
  <identifier>
    <system value="http://ema.europa.eu/fhir" />
    <value value="36c8b3af-25e0-ed11-a81b-6045bd9603ee" />
  </identifier>
  <type value="collection" />
  <timestamp value="2023-04-21T12:41:28.269+00:00" />
  <entry>
    <fullUrl value="urn:uuid:36c8b3af-25e0-ed11-a81b-6045bd9603ee" />
    <resource>
      <List>
        <status value="current" />
        <mode value="working" />
        <entry>
          <item>
            <reference value="urn:uuid:d429d4b4-25e0-ed11-a7c7-000d3aaa0c5f" />
          </item>
        </entry>
        <entry>
          <item>
            <reference value="urn:uuid:2f85c5c0-25e0-ed11-a7c7-000d3aaa0c5f" />
          </item>
        </entry>
        <entry>
          <item>
            <reference value="urn:uuid:a585c5c0-25e0-ed11-a7c7-000d3aaa0c5f" />
          </item>
        </entry>
        <entry>
          <item>
            <reference value="urn:uuid:ec86c5c0-25e0-ed11-a7c7-000d3aaa0c5f" />
          </item>
        </entry>
      </List>
    </resource>
  </entry>
  <entry>
    <fullUrl value="urn:uuid:d429d4b4-25e0-ed11-a7c7-000d3aaa0c5f" />
    <resource>
      <Bundle>
        <id value="d429d4b4-25e0-ed11-a7c7-000d3aaa0c5f" />
        <meta>
          <versionId value="1" />
          <lastUpdated value="2023-04-21T12:41:17.789+00:00" />
        </meta>
        <identifier>
          <system value="http://ema.europa.eu/fhir" />
          <value value="d429d4b4-25e0-ed11-a7c7-000d3aaa0c5f" />
        </identifier>
        <type value="document" />
        <timestamp value="2023-04-21T12:41:17.789+00:00" />
        <entry>
          <fullUrl value="urn:uuid:d429d4b4-25e0-ed11-a7c7-000d3aaa0c5f" />
          <resource>
            <Composition>
              <id value="d429d4b4-25e0-ed11-a7c7-000d3aaa0c5f" />
              <language value="en" />
              <status value="final" />
              <type>
                <coding>
                  <system value="https://spor.ema.europa.eu/rmswi/#/lists/100000155531/terms/100000155532" />
                  <code value="100000155532" />
                  <display value="Summary of Product Characteristics" />
                </coding>
              </type>
              <date value="2023-04-21" />
              <author>
                <identifier>
                  <value value="systemuser" />
                </identifier>
              </author>
              <title value="Summary of Product Characteristics" />
              <section id="12dccaba-25e0-ed11-a7c7-000d3aaa0c5f">
                <title value="SUMMARY OF PRODUCT CHARACTERISTICS" />
                <code>
                  <coding>
                    <system value="https://spor.ema.europa.eu/rmswi/#/lists/200000029659/terms/200000029791" />
                    <code value="200000029791" />
                    <display value="SUMMARY OF PRODUCT CHARACTERISTICS" />
                  </coding>
                </code>
                <text>
                  <status value="generated" />
                  <div xmlns="http://www.w3.org/1999/xhtml" />
                </text>
                <section id="19dccaba-25e0-ed11-a7c7-000d3aaa0c5f">
                  <title value="1. NAME OF THE MEDICINAL PRODUCT" />
                  <code>
                    <coding>
                      <system value="https://spor.ema.europa.eu/rmswi/#/lists/200000029659/terms/200000029792" />
                      <code value="200000029792" />
                      <display value="1. NAME OF THE MEDICINAL PRODUCT" />
                    </coding>
                  </code>
                  <text>
                    <status value="generated" />
                    <div xmlns="http://www.w3.org/1999/xhtml" />
                  </text>
                </section>
                <section id="2adccaba-25e0-ed11-a7c7-000d3aaa0c5f">
                  <title value="2. QUALITATIVE AND QUANTITATIVE COMPOSITION" />
                  <code>
                    <coding>
                      <system value="https://spor.ema.europa.eu/rmswi/#/lists/200000029659/terms/200000029793" />
                      <code value="200000029793" />
                      <display value="2. QUALITATIVE AND QUANTITATIVE COMPOSITION" />
                    </coding>
                  </code>
                  <text>
                    <status value="generated" />
                    <div xmlns="http://www.w3.org/1999/xhtml" />
                  </text>
                </section>
                <section id="5ddccaba-25e0-ed11-a7c7-000d3aaa0c5f">
                  <title value="3. PHARMACEUTICAL FORM" />
                  <code>
                    <coding>
                      <system value="https://spor.ema.europa.eu/rmswi/#/lists/200000029659/terms/200000029797" />
                      <code value="200000029797" />
                      <display value="3. PHARMACEUTICAL FORM" />
                    </coding>
                  </code>
                  <text>
                    <status value="generated" />
                    <div xmlns="http://www.w3.org/1999/xhtml" />
                  </text>
                </section>
                <section id="65dccaba-25e0-ed11-a7c7-000d3aaa0c5f">
                  <title value="4. CLINICAL PARTICULARS" />
                  <code>
                    <coding>
                      <system value="https://spor.ema.europa.eu/rmswi/#/lists/200000029659/terms/200000029798" />
                      <code value="200000029798" />
                      <display value="4. CLINICAL PARTICULARS" />
                    </coding>
                  </code>
                  <text>
                    <status value="generated" />
                    <div xmlns="http://www.w3.org/1999/xhtml" />
                  </text>
                  <section id="80dccaba-25e0-ed11-a7c7-000d3aaa0c5f">
                    <title value="4.1 Therapeutic indications" />
                    <code>
                      <coding>
                        <system value="https://spor.ema.europa.eu/rmswi/#/lists/200000029659/terms/200000029799" />
                        <code value="200000029799" />
                        <display value="4.1 Therapeutic indications" />
                      </coding>
                    </code>
                    <text>
                      <status value="generated" />
                      <div xmlns="http://www.w3.org/1999/xhtml" />
                    </text>
                  </section>
                  <section id="8adccaba-25e0-ed11-a7c7-000d3aaa0c5f">
                    <title value="4.2 Posology and method of administration" />
                    <code>
                      <coding>
                        <system value="https://spor.ema.europa.eu/rmswi/#/lists/200000029659/terms/200000029800" />
                        <code value="200000029800" />
                        <display value="4.2 Posology and method of administration" />
                      </coding>
                    </code>
                    <text>
                      <status value="generated" />
                      <div xmlns="http://www.w3.org/1999/xhtml" />
                    </text>
                    <section id="91dccaba-25e0-ed11-a7c7-000d3aaa0c5f">
                      <title value="Posology" />
                      <code>
                        <coding>
                          <system value="https://spor.ema.europa.eu/rmswi/#/lists/200000029659/terms/200000029801" />
                          <code value="200000029801" />
                          <display value="Posology" />
                        </coding>
                      </code>
                      <text>
                        <status value="generated" />
                        <div xmlns="http://www.w3.org/1999/xhtml" />
                      </text>
                      <section id="9bdccaba-25e0-ed11-a7c7-000d3aaa0c5f">
                        <title value="Paediatric population" />
                        <code>
                          <coding>
                            <system value="https://spor.ema.europa.eu/rmswi/#/lists/200000029659/terms/200000029802" />
                            <code value="200000029802" />
                            <display value="Paediatric population" />
                          </coding>
                        </code>
                        <text>
                          <status value="generated" />
                          <div xmlns="http://www.w3.org/1999/xhtml" />
                        </text>
                      </section>
                    </section>
                    <section id="acdccaba-25e0-ed11-a7c7-000d3aaa0c5f">
                      <title value="Method of administration" />
                      <code>
                        <coding>
                          <system value="https://spor.ema.europa.eu/rmswi/#/lists/200000029659/terms/200000029803" />
                          <code value="200000029803" />
                          <display value="Method of administration" />
                        </coding>
                      </code>
                      <text>
                        <status value="generated" />
                        <div xmlns="http://www.w3.org/1999/xhtml" />
                      </text>
                    </section>
                  </section>
                  <section id="c2dccaba-25e0-ed11-a7c7-000d3aaa0c5f">
                    <title value="4.3 Contraindications" />
                    <code>
                      <coding>
                        <system value="https://spor.ema.europa.eu/rmswi/#/lists/200000029659/terms/200000029805" />
                        <code value="200000029805" />
                        <display value="4.3 Contraindications" />
                      </coding>
                    </code>
                    <text>
                      <status value="generated" />
                      <div xmlns="http://www.w3.org/1999/xhtml" />
                    </text>
                  </section>
                  <section id="cbdccaba-25e0-ed11-a7c7-000d3aaa0c5f">
                    <title value="4.4 Special warnings and precautions for use" />
                    <code>
                      <coding>
                        <system value="https://spor.ema.europa.eu/rmswi/#/lists/200000029659/terms/200000029806" />
                        <code value="200000029806" />
                        <display value="4.4 Special warnings and precautions for use" />
                      </coding>
                    </code>
                    <text>
                      <status value="generated" />
                      <div xmlns="http://www.w3.org/1999/xhtml" />
                    </text>
                  </section>
                  <section id="ebdccaba-25e0-ed11-a7c7-000d3aaa0c5f">
                    <title value="4.5 Interaction with other medicinal products and other forms of interaction" />
                    <code>
                      <coding>
                        <system value="https://spor.ema.europa.eu/rmswi/#/lists/200000029659/terms/200000029809" />
                        <code value="200000029809" />
                        <display value="4.5 Interaction with other medicinal products and other forms of interaction" />
                      </coding>
                    </code>
                    <text>
                      <status value="generated" />
                      <div xmlns="http://www.w3.org/1999/xhtml" />
                    </text>
                  </section>
                  <section id="fadccaba-25e0-ed11-a7c7-000d3aaa0c5f">
                    <title value="4.6 Fertility, pregnancy and lactation" />
                    <code>
                      <coding>
                        <system value="https://spor.ema.europa.eu/rmswi/#/lists/200000029659/terms/200000029811" />
                        <code value="200000029811" />
                        <display value="4.6 Fertility, pregnancy and lactation" />
                      </coding>
                    </code>
                    <text>
                      <status value="generated" />
                      <div xmlns="http://www.w3.org/1999/xhtml" />
                    </text>
                  </section>
                  <section id="20ddcaba-25e0-ed11-a7c7-000d3aaa0c5f">
                    <title value="4.7 Effects on ability to drive and use machines" />
                    <code>
                      <coding>
                        <system value="https://spor.ema.europa.eu/rmswi/#/lists/200000029659/terms/200000029815" />
                        <code value="200000029815" />
                        <display value="4.7 Effects on ability to drive and use machines" />
                      </coding>
                    </code>
                    <text>
                      <status value="generated" />
                      <div xmlns="http://www.w3.org/1999/xhtml" />
                    </text>
                  </section>
                  <section id="28ddcaba-25e0-ed11-a7c7-000d3aaa0c5f">
                    <title value="4.8 Undesirable effects" />
                    <code>
                      <coding>
                        <system value="https://spor.ema.europa.eu/rmswi/#/lists/200000029659/terms/200000029816" />
                        <code value="200000029816" />
                        <display value="4.8 Undesirable effects" />
                      </coding>
                    </code>
                    <text>
                      <status value="generated" />
                      <div xmlns="http://www.w3.org/1999/xhtml" />
                    </text>
                    <section id="41ddcaba-25e0-ed11-a7c7-000d3aaa0c5f">
                      <title value="Reporting of suspected adverse reactions" />
                      <code>
                        <coding>
                          <system value="https://spor.ema.europa.eu/rmswi/#/lists/200000029659/terms/200000029818" />
                          <code value="200000029818" />
                          <display value="Reporting of suspected adverse reactions" />
                        </coding>
                      </code>
                      <text>
                        <status value="generated" />
                        <div xmlns="http://www.w3.org/1999/xhtml" />
                      </text>
                    </section>
                  </section>
                  <section id="4dddcaba-25e0-ed11-a7c7-000d3aaa0c5f">
                    <title value="4.9 Overdose" />
                    <code>
                      <coding>
                        <system value="https://spor.ema.europa.eu/rmswi/#/lists/200000029659/terms/200000029819" />
                        <code value="200000029819" />
                        <display value="4.9 Overdose" />
                      </coding>
                    </code>
                    <text>
                      <status value="generated" />
                      <div xmlns="http://www.w3.org/1999/xhtml" />
                    </text>
                  </section>
                </section>
                <section id="5bddcaba-25e0-ed11-a7c7-000d3aaa0c5f">
                  <title value="5. PHARMACOLOGICAL PROPERTIES" />
                  <code>
                    <coding>
                      <system value="https://spor.ema.europa.eu/rmswi/#/lists/200000029659/terms/200000029821" />
                      <code value="200000029821" />
                      <display value="5. PHARMACOLOGICAL PROPERTIES" />
                    </coding>
                  </code>
                  <text>
                    <status value="generated" />
                    <div xmlns="http://www.w3.org/1999/xhtml" />
                  </text>
                  <section id="65ddcaba-25e0-ed11-a7c7-000d3aaa0c5f">
                    <title value="5.1 Pharmacodynamic properties" />
                    <code>
                      <coding>
                        <system value="https://spor.ema.europa.eu/rmswi/#/lists/200000029659/terms/200000029822" />
                        <code value="200000029822" />
                        <display value="5.1 Pharmacodynamic properties" />
                      </coding>
                    </code>
                    <text>
                      <status value="generated" />
                      <div xmlns="http://www.w3.org/1999/xhtml" />
                    </text>
                  </section>
                  <section id="93ddcaba-25e0-ed11-a7c7-000d3aaa0c5f">
                    <title value="5.2 Pharmacokinetic properties" />
                    <code>
                      <coding>
                        <system value="https://spor.ema.europa.eu/rmswi/#/lists/200000029659/terms/200000029827" />
                        <code value="200000029827" />
                        <display value="5.2 Pharmacokinetic properties" />
                      </coding>
                    </code>
                    <text>
                      <status value="generated" />
                      <div xmlns="http://www.w3.org/1999/xhtml" />
                    </text>
                  </section>
                  <section id="d2ddcaba-25e0-ed11-a7c7-000d3aaa0c5f">
                    <title value="5.3 Preclinical safety data" />
                    <code>
                      <coding>
                        <system value="https://spor.ema.europa.eu/rmswi/#/lists/200000029659/terms/200000029834" />
                        <code value="200000029834" />
                        <display value="5.3 Preclinical safety data" />
                      </coding>
                    </code>
                    <text>
                      <status value="generated" />
                      <div xmlns="http://www.w3.org/1999/xhtml" />
                    </text>
                  </section>
                </section>
                <section id="e6ddcaba-25e0-ed11-a7c7-000d3aaa0c5f">
                  <title value="6. PHARMACEUTICAL PARTICULARS" />
                  <code>
                    <coding>
                      <system value="https://spor.ema.europa.eu/rmswi/#/lists/200000029659/terms/200000029836" />
                      <code value="200000029836" />
                      <display value="6. PHARMACEUTICAL PARTICULARS" />
                    </coding>
                  </code>
                  <text>
                    <status value="generated" />
                    <div xmlns="http://www.w3.org/1999/xhtml" />
                  </text>
                  <section id="efddcaba-25e0-ed11-a7c7-000d3aaa0c5f">
                    <title value="6.1 List of excipients" />
                    <code>
                      <coding>
                        <system value="https://spor.ema.europa.eu/rmswi/#/lists/200000029659/terms/200000029837" />
                        <code value="200000029837" />
                        <display value="6.1 List of excipients" />
                      </coding>
                    </code>
                    <text>
                      <status value="generated" />
                      <div xmlns="http://www.w3.org/1999/xhtml" />
                    </text>
                  </section>
                  <section id="f5ddcaba-25e0-ed11-a7c7-000d3aaa0c5f">
                    <title value="6.2 Incompatibilities" />
                    <code>
                      <coding>
                        <system value="https://spor.ema.europa.eu/rmswi/#/lists/200000029659/terms/200000029838" />
                        <code value="200000029838" />
                        <display value="6.2 Incompatibilities" />
                      </coding>
                    </code>
                    <text>
                      <status value="generated" />
                      <div xmlns="http://www.w3.org/1999/xhtml" />
                    </text>
                  </section>
                  <section id="ffddcaba-25e0-ed11-a7c7-000d3aaa0c5f">
                    <title value="6.3 Shelf life" />
                    <code>
                      <coding>
                        <system value="https://spor.ema.europa.eu/rmswi/#/lists/200000029659/terms/200000029839" />
                        <code value="200000029839" />
                        <display value="6.3 Shelf life" />
                      </coding>
                    </code>
                    <text>
                      <status value="generated" />
                      <div xmlns="http://www.w3.org/1999/xhtml" />
                    </text>
                  </section>
                  <section id="0edecaba-25e0-ed11-a7c7-000d3aaa0c5f">
                    <title value="6.4 Special precautions for storage" />
                    <code>
                      <coding>
                        <system value="https://spor.ema.europa.eu/rmswi/#/lists/200000029659/terms/200000029840" />
                        <code value="200000029840" />
                        <display value="6.4 Special precautions for storage" />
                      </coding>
                    </code>
                    <text>
                      <status value="generated" />
                      <div xmlns="http://www.w3.org/1999/xhtml" />
                    </text>
                  </section>
                  <section id="17decaba-25e0-ed11-a7c7-000d3aaa0c5f">
                    <title value="6.5 Nature and contents of container &#60;and special equipment for use, administration or implantation&#62;" />
                    <code>
                      <coding>
                        <system value="https://spor.ema.europa.eu/rmswi/#/lists/200000029659/terms/200000029841" />
                        <code value="200000029841" />
                        <display value="6.5 Nature and contents of container &lt;and special equipment for use, administration or implantation&gt;" />
                      </coding>
                    </code>
                    <text>
                      <status value="generated" />
                      <div xmlns="http://www.w3.org/1999/xhtml" />
                    </text>
                  </section>
                  <section id="d984c5c0-25e0-ed11-a7c7-000d3aaa0c5f">
                    <title value="6.6 Special precautions for disposal &#60;and other handling&#62;" />
                    <code>
                      <coding>
                        <system value="https://spor.ema.europa.eu/rmswi/#/lists/200000029659/terms/200000029842" />
                        <code value="200000029842" />
                        <display value="6.6 Special precautions for disposal &lt;and other handling&gt;" />
                      </coding>
                    </code>
                    <text>
                      <status value="generated" />
                      <div xmlns="http://www.w3.org/1999/xhtml" />
                    </text>
                  </section>
                </section>
                <section id="e984c5c0-25e0-ed11-a7c7-000d3aaa0c5f">
                  <title value="7. MARKETING AUTHORISATION HOLDER" />
                  <code>
                    <coding>
                      <system value="https://spor.ema.europa.eu/rmswi/#/lists/200000029659/terms/200000029844" />
                      <code value="200000029844" />
                      <display value="7. MARKETING AUTHORISATION HOLDER" />
                    </coding>
                  </code>
                  <text>
                    <status value="generated" />
                    <div xmlns="http://www.w3.org/1999/xhtml" />
                  </text>
                </section>
                <section id="f184c5c0-25e0-ed11-a7c7-000d3aaa0c5f">
                  <title value="8. MARKETING AUTHORISATION NUMBER(S)" />
                  <code>
                    <coding>
                      <system value="https://spor.ema.europa.eu/rmswi/#/lists/200000029659/terms/200000029845" />
                      <code value="200000029845" />
                      <display value="8. MARKETING AUTHORISATION NUMBER(S)" />
                    </coding>
                  </code>
                  <text>
                    <status value="generated" />
                    <div xmlns="http://www.w3.org/1999/xhtml" />
                  </text>
                </section>
                <section id="0485c5c0-25e0-ed11-a7c7-000d3aaa0c5f">
                  <title value="9. DATE OF FIRST AUTHORISATION/RENEWAL OF THE AUTHORISATION" />
                  <code>
                    <coding>
                      <system value="https://spor.ema.europa.eu/rmswi/#/lists/200000029659/terms/200000029846" />
                      <code value="200000029846" />
                      <display value="9. DATE OF FIRST AUTHORISATION/RENEWAL OF THE AUTHORISATION" />
                    </coding>
                  </code>
                  <text>
                    <status value="generated" />
                    <div xmlns="http://www.w3.org/1999/xhtml" />
                  </text>
                </section>
                <section id="1085c5c0-25e0-ed11-a7c7-000d3aaa0c5f">
                  <title value="10. DATE OF REVISION OF THE TEXT" />
                  <code>
                    <coding>
                      <system value="https://spor.ema.europa.eu/rmswi/#/lists/200000029659/terms/200000029847" />
                      <code value="200000029847" />
                      <display value="10. DATE OF REVISION OF THE TEXT" />
                    </coding>
                  </code>
                  <text>
                    <status value="generated" />
                    <div xmlns="http://www.w3.org/1999/xhtml" />
                  </text>
                </section>
              </section>
            </Composition>
          </resource>
        </entry>
      </Bundle>
    </resource>
  </entry>
  <entry>
    <fullUrl value="urn:uuid:2f85c5c0-25e0-ed11-a7c7-000d3aaa0c5f" />
    <resource>
      <Bundle>
        <id value="2f85c5c0-25e0-ed11-a7c7-000d3aaa0c5f" />
        <meta>
          <versionId value="1" />
          <lastUpdated value="2023-04-21T12:41:23.222+00:00" />
        </meta>
        <identifier>
          <system value="http://ema.europa.eu/fhir" />
          <value value="2f85c5c0-25e0-ed11-a7c7-000d3aaa0c5f" />
        </identifier>
        <type value="document" />
        <timestamp value="2023-04-21T12:41:23.222+00:00" />
        <entry>
          <fullUrl value="urn:uuid:2f85c5c0-25e0-ed11-a7c7-000d3aaa0c5f" />
          <resource>
            <Composition>
              <id value="2f85c5c0-25e0-ed11-a7c7-000d3aaa0c5f" />
              <language value="en" />
              <status value="final" />
              <type>
                <coding>
                  <system value="https://spor.ema.europa.eu/rmswi/#/lists/100000155531/terms/100000155533" />
                  <code value="100000155533" />
                  <display value="Annex II" />
                </coding>
              </type>
              <date value="2023-04-21" />
              <author>
                <identifier>
                  <value value="systemuser" />
                </identifier>
              </author>
              <title value="Annex II" />
              <section id="3985c5c0-25e0-ed11-a7c7-000d3aaa0c5f">
                <title value="ANNEX II" />
                <code>
                  <coding>
                    <system value="https://spor.ema.europa.eu/rmswi/#/lists/200000029659/terms/200000029850" />
                    <code value="200000029850" />
                    <display value="ANNEX II" />
                  </coding>
                </code>
                <text>
                  <status value="generated" />
                  <div xmlns="http://www.w3.org/1999/xhtml" />
                </text>
                <section id="4185c5c0-25e0-ed11-a7c7-000d3aaa0c5f">
                  <title value="A. &#60;MANUFACTURER(S) OF THE BIOLOGICAL ACTIVE SUBSTANCE(S) AND&#62; MANUFACTURER(S) RESPONSIBLE FOR BATCH RELEASE" />
                  <code>
                    <coding>
                      <system value="https://spor.ema.europa.eu/rmswi/#/lists/200000029659/terms/200000029851" />
                      <code value="200000029851" />
                      <display value="A. &lt;MANUFACTURER(S) OF THE BIOLOGICAL ACTIVE SUBSTANCE(S) AND&gt; MANUFACTURER(S) RESPONSIBLE FOR BATCH RELEASE" />
                    </coding>
                  </code>
                  <text>
                    <status value="generated" />
                    <div xmlns="http://www.w3.org/1999/xhtml" />
                  </text>
                </section>
                <section id="4785c5c0-25e0-ed11-a7c7-000d3aaa0c5f">
                  <title value="B. CONDITIONS OR RESTRICTIONS REGARDING SUPPLY AND USE" />
                  <code>
                    <coding>
                      <system value="https://spor.ema.europa.eu/rmswi/#/lists/200000029659/terms/200000029852" />
                      <code value="200000029852" />
                      <display value="B. CONDITIONS OR RESTRICTIONS REGARDING SUPPLY AND USE" />
                    </coding>
                  </code>
                  <text>
                    <status value="generated" />
                    <div xmlns="http://www.w3.org/1999/xhtml" />
                  </text>
                </section>
                <section id="5d85c5c0-25e0-ed11-a7c7-000d3aaa0c5f">
                  <title value="C. OTHER CONDITIONS AND REQUIREMENTS OF THE MARKETING AUTHORISATION" />
                  <code>
                    <coding>
                      <system value="https://spor.ema.europa.eu/rmswi/#/lists/200000029659/terms/200000029854" />
                      <code value="200000029854" />
                      <display value="C. OTHER CONDITIONS AND REQUIREMENTS OF THE MARKETING AUTHORISATION" />
                    </coding>
                  </code>
                  <text>
                    <status value="generated" />
                    <div xmlns="http://www.w3.org/1999/xhtml" />
                  </text>
                  <section id="6585c5c0-25e0-ed11-a7c7-000d3aaa0c5f">
                    <title value="Periodic safety update reports (PSURs)" />
                    <code>
                      <coding>
                        <system value="https://spor.ema.europa.eu/rmswi/#/lists/200000029659/terms/200000029855" />
                        <code value="200000029855" />
                        <display value="Periodic safety update reports (PSURs)" />
                      </coding>
                    </code>
                    <text>
                      <status value="generated" />
                      <div xmlns="http://www.w3.org/1999/xhtml" />
                    </text>
                  </section>
                </section>
                <section id="7085c5c0-25e0-ed11-a7c7-000d3aaa0c5f">
                  <title value="D. CONDITIONS OR RESTRICTIONS WITH REGARD TO THE SAFE AND EFFECTIVE USE OF THE MEDICINAL PRODUCT" />
                  <code>
                    <coding>
                      <system value="https://spor.ema.europa.eu/rmswi/#/lists/200000029659/terms/200000029856" />
                      <code value="200000029856" />
                      <display value="D. CONDITIONS OR RESTRICTIONS WITH REGARD TO THE SAFE AND EFFECTIVE USE OF THE MEDICINAL PRODUCT" />
                    </coding>
                  </code>
                  <text>
                    <status value="generated" />
                    <div xmlns="http://www.w3.org/1999/xhtml" />
                  </text>
                  <section id="7d85c5c0-25e0-ed11-a7c7-000d3aaa0c5f">
                    <title value="Risk management plan (RMP)" />
                    <code>
                      <coding>
                        <system value="https://spor.ema.europa.eu/rmswi/#/lists/200000029659/terms/200000029857" />
                        <code value="200000029857" />
                        <display value="Risk management plan (RMP)" />
                      </coding>
                    </code>
                    <text>
                      <status value="generated" />
                      <div xmlns="http://www.w3.org/1999/xhtml" />
                    </text>
                  </section>
                </section>
              </section>
            </Composition>
          </resource>
        </entry>
      </Bundle>
    </resource>
  </entry>
  <entry>
    <fullUrl value="urn:uuid:a585c5c0-25e0-ed11-a7c7-000d3aaa0c5f" />
    <resource>
      <Bundle>
        <id value="a585c5c0-25e0-ed11-a7c7-000d3aaa0c5f" />
        <meta>
          <versionId value="1" />
          <lastUpdated value="2023-04-21T12:41:24.458+00:00" />
        </meta>
        <identifier>
          <system value="http://ema.europa.eu/fhir" />
          <value value="a585c5c0-25e0-ed11-a7c7-000d3aaa0c5f" />
        </identifier>
        <type value="document" />
        <timestamp value="2023-04-21T12:41:24.458+00:00" />
        <entry>
          <fullUrl value="urn:uuid:a585c5c0-25e0-ed11-a7c7-000d3aaa0c5f" />
          <resource>
            <Composition>
              <id value="a585c5c0-25e0-ed11-a7c7-000d3aaa0c5f" />
              <language value="en" />
              <status value="final" />
              <type>
                <coding>
                  <system value="https://spor.ema.europa.eu/rmswi/#/lists/100000155531/terms/100000155538" />
                  <code value="100000155538" />
                  <display value="Package Leaflet" />
                </coding>
              </type>
              <date value="2023-04-21" />
              <author>
                <identifier>
                  <value value="systemuser" />
                </identifier>
              </author>
              <title value="Package Leaflet" />
              <section id="ba85c5c0-25e0-ed11-a7c7-000d3aaa0c5f">
                <title value="PACKAGE LEAFLET" />
                <code>
                  <coding>
                    <system value="https://spor.ema.europa.eu/rmswi/#/lists/200000029659/terms/200000029894" />
                    <code value="200000029894" />
                    <display value="PACKAGE LEAFLET" />
                  </coding>
                </code>
                <text>
                  <status value="generated" />
                  <div xmlns="http://www.w3.org/1999/xhtml">&lt;p class="MsoNormal" style="text-align: center;" align="center"&gt;&lt;strong style="mso-bidi-font-weight: normal;"&gt;&lt;span lang="EN-GB" style="mso-bidi-font-size: 11.0pt; mso-no-proof: yes;"&gt;Package leaflet: Information for the user&lt;/span&gt;&lt;/strong&gt;&lt;/p&gt;
&lt;p class="MsoNormal" style="text-align: center; line-height: normal; mso-list: skip; tab-stops: 36.0pt; background: white;" align="center"&gt;&lt;span lang="EN-GB" style="mso-bidi-font-size: 11.0pt; mso-no-proof: yes;"&gt;&#160;&lt;/span&gt;&lt;/p&gt;
&lt;p class="SmPC-PLtext" style="text-align: center;" align="center"&gt;&lt;strong style="mso-bidi-font-weight: normal;"&gt;&lt;span style="mso-fareast-font-family: 'MS Mincho'; color: windowtext; mso-ansi-language: EN-US;"&gt;Flucelvax Tetra&lt;/span&gt;&lt;/strong&gt;&lt;strong style="mso-bidi-font-weight: normal;"&gt;&lt;span lang="EN-GB" style="color: windowtext;"&gt; - suspension for injection in pre-filled syringe&lt;/span&gt;&lt;/strong&gt;&lt;/p&gt;
&lt;p class="SmPC-PLtext" style="text-align: center;" align="center"&gt;&lt;span lang="EN-GB" style="color: windowtext;"&gt;Influenza vaccine (surface antigen, inactivated, prepared in cell cultures)&lt;/span&gt;&lt;/p&gt;
&lt;p class="MsoNormal" style="line-height: normal; tab-stops: 36.0pt;"&gt;&lt;span lang="EN-GB" style="mso-bidi-font-size: 11.0pt; mso-no-proof: yes;"&gt;&#160;&lt;/span&gt;&lt;/p&gt;
&lt;p class="MsoNormal" style="line-height: normal; tab-stops: 36.0pt;"&gt;&lt;span lang="EN-GB" style="mso-no-proof: yes;"&gt;&lt;img src="data:image/png;base64," annotationsrc="~/_entity/annotation/76a10366-26e0-ed11-a7c6-000d3aaa0403" /&gt;This medicine is subject to additional monitoring. This will allow quick identification of new safety information. You can help by reporting any side effects you may get. See the end of section 4 for how to report side effects.&lt;/span&gt;&lt;/p&gt;
&lt;p class="MsoNormal" style="line-height: normal; mso-hyphenate: none; tab-stops: 36.0pt;"&gt;&lt;strong style="mso-bidi-font-weight: normal;"&gt;&lt;span lang="EN-GB" style="mso-bidi-font-size: 11.0pt; mso-no-proof: yes;"&gt;&#160;&lt;/span&gt;&lt;/strong&gt;&lt;/p&gt;
&lt;p class="MsoNormal" style="line-height: normal; mso-hyphenate: none; tab-stops: 36.0pt;"&gt;&lt;strong style="mso-bidi-font-weight: normal;"&gt;&lt;span lang="EN-GB" style="mso-bidi-font-size: 11.0pt; mso-no-proof: yes;"&gt;Read all of this leaflet carefully before you receive this medicine because it contains important information for you.&lt;/span&gt;&lt;/strong&gt;&lt;/p&gt;
&lt;p class="MsoNormal" style="text-indent: -1.0cm; line-height: normal; mso-list: l0 level1 lfo1; tab-stops: 36.0pt; margin: 0cm -.1pt .0001pt 1.0cm;"&gt;&lt;!-- [if !supportLists]--&gt;&lt;span lang="EN-GB" style="mso-bidi-font-size: 11.0pt; mso-no-proof: yes;"&gt;&lt;span style="mso-list: Ignore;"&gt;-&lt;span style="font: 7.0pt 'Times New Roman';"&gt;&#160;&#160;&#160;&#160;&#160;&#160;&#160;&#160;&#160;&#160;&#160;&#160;&#160; &lt;/span&gt;&lt;/span&gt;&lt;/span&gt;&lt;!--[endif]--&gt;&lt;span lang="EN-GB" style="mso-bidi-font-size: 11.0pt; mso-no-proof: yes;"&gt;Keep this leaflet. You may need to read it again. &lt;/span&gt;&lt;/p&gt;
&lt;p class="MsoNormal" style="text-indent: -1.0cm; line-height: normal; mso-list: l0 level1 lfo1; tab-stops: 36.0pt; margin: 0cm -.1pt .0001pt 1.0cm;"&gt;&lt;!-- [if !supportLists]--&gt;&lt;span lang="EN-GB" style="mso-bidi-font-size: 11.0pt; mso-no-proof: yes;"&gt;&lt;span style="mso-list: Ignore;"&gt;-&lt;span style="font: 7.0pt 'Times New Roman';"&gt;&#160;&#160;&#160;&#160;&#160;&#160;&#160;&#160;&#160;&#160;&#160;&#160;&#160; &lt;/span&gt;&lt;/span&gt;&lt;/span&gt;&lt;!--[endif]--&gt;&lt;span lang="EN-GB" style="mso-bidi-font-size: 11.0pt; mso-no-proof: yes;"&gt;If you have any further questions, ask your doctor, pharmacist or nurse.&lt;/span&gt;&lt;/p&gt;
&lt;p class="MsoNormal" style="margin-left: 1.0cm; text-indent: -1.0cm; line-height: normal; mso-list: l0 level1 lfo1;"&gt;&lt;!-- [if !supportLists]--&gt;&lt;span lang="EN-GB" style="mso-bidi-font-size: 11.0pt;"&gt;&lt;span style="mso-list: Ignore;"&gt;-&lt;span style="font: 7.0pt 'Times New Roman';"&gt;&#160;&#160;&#160;&#160;&#160;&#160;&#160;&#160;&#160;&#160;&#160;&#160;&#160; &lt;/span&gt;&lt;/span&gt;&lt;/span&gt;&lt;!--[endif]--&gt;&lt;span lang="EN-GB" style="mso-bidi-font-size: 11.0pt; mso-no-proof: yes;"&gt;If you get any side effects, talk to your doctor, pharmacist or nurse.&lt;/span&gt;&lt;span lang="EN-GB" style="mso-bidi-font-size: 11.0pt; color: red;"&gt; &lt;/span&gt;&lt;span lang="EN-GB" style="mso-bidi-font-size: 11.0pt;"&gt;This includes any possible side effects not listed in this leaflet. See section 4.&lt;/span&gt;&lt;/p&gt;
&lt;p class="MsoNormal" style="margin-right: -.1pt; line-height: normal; tab-stops: 36.0pt;"&gt;&lt;span lang="EN-GB" style="mso-bidi-font-size: 11.0pt; mso-no-proof: yes;"&gt;&#160;&lt;/span&gt;&lt;/p&gt;
&lt;p class="MsoNormal" style="margin-right: -.1pt; line-height: normal; tab-stops: 36.0pt;"&gt;&lt;span lang="EN-GB" style="mso-bidi-font-size: 11.0pt; mso-no-proof: yes;"&gt;&#160;&lt;/span&gt;&lt;/p&gt;
&lt;p class="MsoNormal" style="margin-right: -.1pt; line-height: normal; mso-list: skip; tab-stops: 36.0pt;"&gt;&lt;strong style="mso-bidi-font-weight: normal;"&gt;&lt;span lang="EN-GB" style="mso-bidi-font-size: 11.0pt; mso-no-proof: yes;"&gt;What is in this leaflet&lt;/span&gt;&lt;/strong&gt;&lt;/p&gt;
&lt;p class="MsoNormal"&gt;&lt;span lang="EN-GB" style="mso-bidi-font-size: 11.0pt; mso-no-proof: yes;"&gt;&#160;&lt;/span&gt;&lt;/p&gt;
&lt;p class="MsoNormal" style="margin-right: -1.45pt; line-height: normal; mso-list: skip; tab-stops: 21.3pt;"&gt;&lt;span lang="EN-GB" style="mso-bidi-font-size: 11.0pt; mso-no-proof: yes;"&gt;1.&lt;span style="mso-tab-count: 1;"&gt;&#160;&#160;&#160; &lt;/span&gt;What &lt;/span&gt;&lt;span style="mso-bidi-font-size: 11.0pt; mso-fareast-font-family: 'MS Mincho'; mso-ansi-language: EN-US;"&gt;Flucelvax Tetra &lt;/span&gt;&lt;span lang="EN-GB" style="mso-bidi-font-size: 11.0pt; mso-no-proof: yes;"&gt;is and what it is used for &lt;/span&gt;&lt;/p&gt;
&lt;p class="MsoNormal" style="margin-right: -1.45pt; line-height: normal; mso-list: skip; tab-stops: 21.3pt;"&gt;&lt;span lang="EN-GB" style="mso-bidi-font-size: 11.0pt; mso-no-proof: yes;"&gt;2.&lt;span style="mso-tab-count: 1;"&gt;&#160;&#160;&#160; &lt;/span&gt;What you need to know before you &lt;span class="SmPC-PLtextChar"&gt;receive &lt;/span&gt;&lt;/span&gt;&lt;span style="mso-bidi-font-size: 11.0pt; mso-fareast-font-family: 'MS Mincho'; mso-ansi-language: EN-US;"&gt;Flucelvax Tetra&lt;/span&gt;&lt;span style="mso-bidi-font-size: 11.0pt; mso-no-proof: yes;"&gt; &lt;/span&gt;&lt;/p&gt;
&lt;p class="MsoNormal" style="margin-right: -1.45pt; line-height: normal; mso-list: skip; tab-stops: 21.3pt;"&gt;&lt;span lang="EN-GB" style="mso-bidi-font-size: 11.0pt; mso-no-proof: yes;"&gt;3.&lt;span style="mso-tab-count: 1;"&gt;&#160;&#160;&#160; &lt;/span&gt;How &lt;/span&gt;&lt;span style="mso-bidi-font-size: 11.0pt; mso-fareast-font-family: 'MS Mincho'; mso-ansi-language: EN-US;"&gt;Flucelvax Tetra &lt;/span&gt;&lt;span class="SmPC-PLtextChar"&gt;&lt;span lang="EN-GB"&gt;is given&lt;/span&gt;&lt;/span&gt;&lt;span lang="EN-GB" style="mso-bidi-font-size: 11.0pt; mso-no-proof: yes;"&gt; &lt;/span&gt;&lt;/p&gt;
&lt;p class="MsoNormal" style="margin-right: -1.45pt; line-height: normal; mso-list: skip; tab-stops: 21.3pt;"&gt;&lt;span lang="EN-GB" style="mso-bidi-font-size: 11.0pt; mso-no-proof: yes;"&gt;4.&lt;span style="mso-tab-count: 1;"&gt;&#160;&#160;&#160; &lt;/span&gt;Possible side effects &lt;/span&gt;&lt;/p&gt;
&lt;p class="MsoNormal" style="margin-right: -1.45pt; line-height: normal; tab-stops: 21.3pt;"&gt;&lt;span lang="EN-GB" style="mso-bidi-font-size: 11.0pt; mso-no-proof: yes;"&gt;5.&lt;span style="mso-tab-count: 1;"&gt;&#160;&#160;&#160; &lt;/span&gt;How to store &lt;/span&gt;&lt;span style="mso-bidi-font-size: 11.0pt; mso-fareast-font-family: 'MS Mincho'; mso-ansi-language: EN-US;"&gt;Flucelvax Tetra &lt;/span&gt;&lt;span style="mso-bidi-font-size: 11.0pt; mso-no-proof: yes;"&gt;&lt;span style="mso-spacerun: yes;"&gt;&#160;&lt;/span&gt;&lt;/span&gt;&lt;/p&gt;
&lt;p class="MsoNormal" style="margin-right: -1.45pt; line-height: normal; tab-stops: 21.3pt;"&gt;&lt;span lang="EN-GB" style="mso-bidi-font-size: 11.0pt; mso-no-proof: yes;"&gt;6.&lt;span style="mso-tab-count: 1;"&gt;&#160;&#160;&#160; &lt;/span&gt;Contents of the pack and other information&lt;/span&gt;&lt;/p&gt;</div>
                </text>
                <section id="c285c5c0-25e0-ed11-a7c7-000d3aaa0c5f">
                  <title value="1. What Flucelvax Tetra is and what it is used for" />
                  <code>
                    <coding>
                      <system value="https://spor.ema.europa.eu/rmswi/#/lists/200000029659/terms/200000029895" />
                      <code value="200000029895" />
                      <display value="1. What X is and what it is used for" />
                    </coding>
                  </code>
                  <text>
                    <status value="generated" />
                    <div xmlns="http://www.w3.org/1999/xhtml">&lt;p class="SmPC-PLtext"&gt;&lt;span style="mso-fareast-font-family: 'MS Mincho'; color: windowtext; mso-ansi-language: EN-US;"&gt;Flucelvax Tetra&lt;/span&gt;&lt;span style="mso-fareast-font-family: 'MS Mincho'; mso-ansi-language: EN-US;"&gt; &lt;/span&gt;&lt;span lang="EN-GB" style="color: windowtext;"&gt;is a vaccine against flu (influenza). &lt;/span&gt;&lt;span style="mso-fareast-font-family: 'MS Mincho'; color: windowtext; mso-ansi-language: EN-US;"&gt;Flucelvax Tetra&lt;/span&gt;&lt;span style="mso-fareast-font-family: 'MS Mincho'; mso-ansi-language: EN-US;"&gt; &lt;/span&gt;&lt;span class="SmPC-PLtextChar"&gt;&lt;span lang="EN-GB" style="color: windowtext;"&gt;is prepared in cell cultures, and, therefore, is egg-free.&lt;/span&gt;&lt;/span&gt;&lt;/p&gt;
&lt;p class="SmPC-PLtext"&gt;&lt;span lang="EN-GB" style="color: windowtext;"&gt;When a person is given the vaccine, the immune system (the body&#8217;s natural defence system) will produce its own protection against the influenza virus. None of the ingredients in the vaccine can cause flu.&lt;/span&gt;&lt;/p&gt;
&lt;p class="SmPC-PLtext"&gt;&lt;span lang="EN-GB" style="color: windowtext;"&gt;&#160;&lt;/span&gt;&lt;/p&gt;
&lt;p class="SmPC-PLtext"&gt;&lt;span style="mso-fareast-font-family: 'MS Mincho'; color: windowtext; mso-ansi-language: EN-US;"&gt;Flucelvax Tetra&lt;/span&gt;&lt;span style="mso-fareast-font-family: 'MS Mincho'; mso-ansi-language: EN-US;"&gt; &lt;/span&gt;&lt;span lang="EN-GB" style="color: windowtext;"&gt;is used to prevent flu in adults and children from 2 years of age.&lt;/span&gt;&lt;/p&gt;
&lt;p class="SmPC-PLtext"&gt;&lt;span lang="EN-GB" style="color: windowtext;"&gt;&#160;&lt;/span&gt;&lt;/p&gt;
&lt;p class="SmPC-PLtext"&gt;&lt;span lang="EN-GB" style="color: windowtext;"&gt;The vaccine targets four strains of influenza virus following the recommendations by the World Health Organisation for the 2022/2023 SEASON.&lt;/span&gt;&lt;/p&gt;</div>
                  </text>
                </section>
                <section id="ca85c5c0-25e0-ed11-a7c7-000d3aaa0c5f">
                  <title value="2. What you need to know before you receive Flucelvax Tetra" />
                  <code>
                    <coding>
                      <system value="https://spor.ema.europa.eu/rmswi/#/lists/200000029659/terms/200000029896" />
                      <code value="200000029896" />
                      <display value="2. What you need to know before you &lt;take&gt; &lt;use&gt; X" />
                    </coding>
                  </code>
                  <text>
                    <status value="generated" />
                    <div xmlns="http://www.w3.org/1999/xhtml" />
                  </text>
                  <section id="d285c5c0-25e0-ed11-a7c7-000d3aaa0c5f">
                    <title value="You should not receive Flucelvax Tetra:" />
                    <code>
                      <coding>
                        <system value="https://spor.ema.europa.eu/rmswi/#/lists/200000029659/terms/200000029897" />
                        <code value="200000029897" />
                        <display value="Do not &lt;take&gt; &lt;use&gt; X" />
                      </coding>
                    </code>
                    <text>
                      <status value="generated" />
                      <div xmlns="http://www.w3.org/1999/xhtml">&lt;p class="SmPC-PLtext" style="margin-left: 14.2pt; text-indent: -14.2pt;"&gt;&lt;span lang="EN-GB" style="color: windowtext;"&gt;If you are allergic to:&lt;/span&gt;&lt;/p&gt;
&lt;p class="SmPC-PLtext" style="margin-left: 36.0pt; text-indent: -18.0pt; mso-list: l0 level1 lfo1; tab-stops: 42.55pt;"&gt;&lt;!-- [if !supportLists]--&gt;&lt;span lang="EN-GB" style="font-family: Symbol; mso-fareast-font-family: Symbol; mso-bidi-font-family: Symbol; color: windowtext;"&gt;&lt;span style="mso-list: Ignore;"&gt;&#183;&lt;span style="font: 7.0pt 'Times New Roman';"&gt;&#160;&#160;&#160;&#160;&#160;&#160;&#160; &lt;/span&gt;&lt;/span&gt;&lt;/span&gt;&lt;!--[endif]--&gt;&lt;span lang="EN-GB" style="color: windowtext;"&gt;the active ingredients or any of the other ingredients of this medicine (listed in section&#160;6)&lt;/span&gt;&lt;/p&gt;
&lt;p class="SmPC-PLtext" style="margin-left: 36.0pt; text-indent: -18.0pt; mso-list: l0 level1 lfo1; tab-stops: 42.55pt;"&gt;&lt;!-- [if !supportLists]--&gt;&lt;span lang="EN-GB" style="font-family: Symbol; mso-fareast-font-family: Symbol; mso-bidi-font-family: Symbol; color: windowtext;"&gt;&lt;span style="mso-list: Ignore;"&gt;&#183;&lt;span style="font: 7.0pt 'Times New Roman';"&gt;&#160;&#160;&#160;&#160;&#160;&#160;&#160; &lt;/span&gt;&lt;/span&gt;&lt;/span&gt;&lt;!--[endif]--&gt;&lt;span lang="EN-GB" style="color: windowtext;"&gt;beta-propiolactone, cetyltrimethylammonium bromide, or polysorbate&#160;80, which are trace residues from the manufacturing process.&lt;/span&gt;&lt;/p&gt;</div>
                    </text>
                  </section>
                  <section id="db85c5c0-25e0-ed11-a7c7-000d3aaa0c5f">
                    <title value="Warnings and precautions" />
                    <code>
                      <coding>
                        <system value="https://spor.ema.europa.eu/rmswi/#/lists/200000029659/terms/200000029898" />
                        <code value="200000029898" />
                        <display value="Warnings and precautions" />
                      </coding>
                    </code>
                    <text>
                      <status value="generated" />
                      <div xmlns="http://www.w3.org/1999/xhtml">&lt;p class="MsoNormal" style="line-height: normal; mso-list: skip; tab-stops: 36.0pt;"&gt;&lt;span lang="EN-GB" style="mso-bidi-font-size: 11.0pt; mso-no-proof: yes;"&gt;Talk to your doctor, pharmacist or nurse before &lt;span class="SmPC-PLtextChar"&gt;receiving&lt;/span&gt; &lt;/span&gt;&lt;span style="mso-bidi-font-size: 11.0pt; mso-fareast-font-family: 'MS Mincho'; mso-ansi-language: EN-US;"&gt;Flucelvax Tetra&lt;/span&gt;&lt;span class="SmPC-PLtextChar"&gt;&lt;span lang="EN-GB"&gt;.&lt;/span&gt;&lt;/span&gt;&lt;/p&gt;
&lt;p class="MsoNormal" style="margin-right: -.1pt; line-height: normal; mso-list: skip; tab-stops: 36.0pt;"&gt;&lt;span lang="EN-GB" style="mso-bidi-font-size: 11.0pt; mso-no-proof: yes;"&gt;&#160;&lt;/span&gt;&lt;u&gt;&lt;span style="color: windowtext; mso-ansi-language: EN-US;"&gt;BEFORE receiving the vaccine&lt;/span&gt;&lt;/u&gt;&lt;/p&gt;
&lt;p class="SmPC-PLtext" style="margin-left: 18.0pt; text-indent: -18.0pt; mso-list: l0 level1 lfo1; tab-stops: 36.0pt;"&gt;&lt;!-- [if !supportLists]--&gt;&lt;span style="font-family: Symbol; mso-fareast-font-family: Symbol; mso-bidi-font-family: Symbol; color: windowtext; mso-ansi-language: EN-US;"&gt;&lt;span style="mso-list: Ignore;"&gt;&#183;&lt;span style="font: 7.0pt 'Times New Roman';"&gt;&#160;&#160;&#160;&#160;&#160;&#160;&#160; &lt;/span&gt;&lt;/span&gt;&lt;/span&gt;&lt;!--[endif]--&gt;&lt;span style="color: windowtext; mso-ansi-language: EN-US;"&gt;Your &lt;span style="mso-bidi-font-weight: bold;"&gt;doctor or nurse&lt;/span&gt; will make sure that appropriate medical treatment and supervision is readily available in case of a rare anaphylactic reaction (a very severe allergic reaction with symptoms such as difficulty in breathing, dizziness, a weak and rapid pulse and skin rash) following the administration. This reaction may occur with &lt;/span&gt;&lt;span style="mso-fareast-font-family: 'MS Mincho'; color: windowtext; mso-ansi-language: EN-US;"&gt;Flucelvax Tetra&lt;/span&gt;&lt;span class="SmPC-PLtextChar"&gt;&lt;span style="color: windowtext;"&gt; &lt;/span&gt;&lt;/span&gt;&lt;span style="color: windowtext; mso-ansi-language: EN-US;"&gt;as with all vaccines that are injected.&lt;/span&gt;&lt;/p&gt;
&lt;p class="SmPC-PLtext" style="margin-left: 18.0pt; text-indent: -18.0pt; mso-list: l0 level1 lfo1; tab-stops: 36.0pt;"&gt;&lt;!-- [if !supportLists]--&gt;&lt;span style="font-family: Symbol; mso-fareast-font-family: Symbol; mso-bidi-font-family: Symbol; color: windowtext; mso-ansi-language: EN-US;"&gt;&lt;span style="mso-list: Ignore;"&gt;&#183;&lt;span style="font: 7.0pt 'Times New Roman';"&gt;&#160;&#160;&#160;&#160;&#160;&#160;&#160; &lt;/span&gt;&lt;/span&gt;&lt;/span&gt;&lt;!--[endif]--&gt;&lt;span style="color: windowtext; mso-ansi-language: EN-US;"&gt;You should tell your doctor if you have an acute illness associated with fever. Your doctor may decide to delay your vaccination until your fever is gone.&lt;/span&gt;&lt;/p&gt;
&lt;p class="SmPC-PLtext" style="margin-left: 18.0pt; text-indent: -18.0pt; mso-list: l0 level1 lfo1; tab-stops: 36.0pt;"&gt;&lt;!-- [if !supportLists]--&gt;&lt;span style="font-family: Symbol; mso-fareast-font-family: Symbol; mso-bidi-font-family: Symbol; color: windowtext; mso-ansi-language: EN-US;"&gt;&lt;span style="mso-list: Ignore;"&gt;&#183;&lt;span style="font: 7.0pt 'Times New Roman';"&gt;&#160;&#160;&#160;&#160;&#160;&#160;&#160; &lt;/span&gt;&lt;/span&gt;&lt;/span&gt;&lt;!--[endif]--&gt;&lt;span style="color: windowtext; mso-ansi-language: EN-US; mso-bidi-font-weight: bold;"&gt;You&lt;/span&gt;&lt;span style="color: windowtext; mso-ansi-language: EN-US;"&gt; should tell your doctor if your immune system is impaired, or if you are undergoing treatment which affects the immune system, e.g. with medicine against cancer (chemotherapy) or corticosteroid medicines (see section &#8220;Other medicines and Flucelvax Tetra&#8221;).&lt;/span&gt;&lt;/p&gt;
&lt;p class="SmPC-PLtext" style="margin-left: 18.0pt; text-indent: -18.0pt; mso-list: l0 level1 lfo1; tab-stops: 36.0pt;"&gt;&lt;!-- [if !supportLists]--&gt;&lt;span style="font-family: Symbol; mso-fareast-font-family: Symbol; mso-bidi-font-family: Symbol; color: windowtext; mso-ansi-language: EN-US;"&gt;&lt;span style="mso-list: Ignore;"&gt;&#183;&lt;span style="font: 7.0pt 'Times New Roman';"&gt;&#160;&#160;&#160;&#160;&#160;&#160;&#160; &lt;/span&gt;&lt;/span&gt;&lt;/span&gt;&lt;!--[endif]--&gt;&lt;span style="color: windowtext; mso-ansi-language: EN-US;"&gt;You should tell your doctor if you have a bleeding problem or bruise easily.&lt;/span&gt;&lt;/p&gt;
&lt;p class="SmPC-PLtext" style="margin-left: 18.0pt; text-indent: -18.0pt; mso-list: l0 level1 lfo1; tab-stops: 36.0pt;"&gt;&lt;!-- [if !supportLists]--&gt;&lt;span style="font-family: Symbol; mso-fareast-font-family: Symbol; mso-bidi-font-family: Symbol; color: windowtext; mso-ansi-language: EN-US;"&gt;&lt;span style="mso-list: Ignore;"&gt;&#183;&lt;span style="font: 7.0pt 'Times New Roman';"&gt;&#160;&#160;&#160;&#160;&#160;&#160;&#160; &lt;/span&gt;&lt;/span&gt;&lt;/span&gt;&lt;!--[endif]--&gt;&lt;span style="color: windowtext; mso-ansi-language: EN-US;"&gt;Fainting can occur following, or even before, any needle injection, therefore tell the doctor or nurse if you fainted with a previous injection.&lt;/span&gt;&lt;/p&gt;
&lt;p class="SmPC-PLtext" style="tab-stops: 36.0pt;"&gt;&lt;span style="color: windowtext; mso-ansi-language: EN-US;"&gt;&#160;&lt;/span&gt;&lt;span style="color: windowtext; mso-ansi-language: EN-US;"&gt;As with all vaccines, Flucelvax Tetra may not fully protect all persons who are vaccinated.&lt;/span&gt;&lt;/p&gt;</div>
                    </text>
                  </section>
                  <section id="ea85c5c0-25e0-ed11-a7c7-000d3aaa0c5f">
                    <title value="Children &#60;and adolescents&#62;" />
                    <code>
                      <coding>
                        <system value="https://spor.ema.europa.eu/rmswi/#/lists/200000029659/terms/200000029899" />
                        <code value="200000029899" />
                        <display value="Children &lt;and adolescents&gt;" />
                      </coding>
                    </code>
                    <text>
                      <status value="generated" />
                      <div xmlns="http://www.w3.org/1999/xhtml" />
                    </text>
                  </section>
                  <section id="f385c5c0-25e0-ed11-a7c7-000d3aaa0c5f">
                    <title value="Other medicines and Flucelvax Tetra" />
                    <code>
                      <coding>
                        <system value="https://spor.ema.europa.eu/rmswi/#/lists/200000029659/terms/200000029900" />
                        <code value="200000029900" />
                        <display value="Other medicines and X" />
                      </coding>
                    </code>
                    <text>
                      <status value="generated" />
                      <div xmlns="http://www.w3.org/1999/xhtml">&lt;p class="MsoNormal" style="margin-right: -.1pt; line-height: normal; mso-list: skip; tab-stops: 36.0pt;"&gt;&lt;span lang="EN-GB" style="mso-bidi-font-size: 11.0pt;"&gt;Tell your doctor or&#160;&lt;span class="SmPC-PLtextChar"&gt;nurse&lt;/span&gt; if you are using, have recently &lt;span style="mso-no-proof: yes;"&gt;used or might use any other medicines, &lt;span class="SmPC-PLtextChar"&gt;including medicines obtained without a prescription or if you have recently received any other vaccine.&lt;/span&gt;&lt;/span&gt;&lt;/span&gt;&lt;/p&gt;
&lt;p class="MsoNormal" style="margin-right: -.1pt; line-height: normal; mso-list: skip; tab-stops: 36.0pt;"&gt;&lt;span lang="EN-GB" style="mso-bidi-font-size: 11.0pt; mso-no-proof: yes;"&gt;&#160;&lt;/span&gt;&lt;/p&gt;
&lt;p class="SmPC-PLtext"&gt;&lt;span style="mso-fareast-font-family: 'MS Mincho'; color: windowtext; mso-ansi-language: EN-US;"&gt;Flucelvax Tetra&lt;/span&gt;&lt;span style="mso-fareast-font-family: 'MS Mincho'; mso-ansi-language: EN-US;"&gt; &lt;/span&gt;&lt;span lang="EN-GB" style="color: windowtext;"&gt;may be given at the same time as other vaccines.&lt;/span&gt;&lt;/p&gt;</div>
                    </text>
                  </section>
                  <section id="fc85c5c0-25e0-ed11-a7c7-000d3aaa0c5f">
                    <title value="X with &#60;food&#62; &#60;and&#62; &#60;,&#62; &#60;drink&#62; &#60;and&#62; &#60;alcohol&#62;" />
                    <code>
                      <coding>
                        <system value="https://spor.ema.europa.eu/rmswi/#/lists/200000029659/terms/200000029901" />
                        <code value="200000029901" />
                        <display value="X with &lt;food&gt; &lt;and&gt; &lt;,&gt; &lt;drink&gt; &lt;and&gt; &lt;alcohol&gt;" />
                      </coding>
                    </code>
                    <text>
                      <status value="generated" />
                      <div xmlns="http://www.w3.org/1999/xhtml" />
                    </text>
                  </section>
                  <section id="0686c5c0-25e0-ed11-a7c7-000d3aaa0c5f">
                    <title value="Pregnancy and breast-feeding" />
                    <code>
                      <coding>
                        <system value="https://spor.ema.europa.eu/rmswi/#/lists/200000029659/terms/200000029902" />
                        <code value="200000029902" />
                        <display value="Pregnancy &lt;and&gt; &lt;,&gt; breast-feeding &lt;and fertility&gt;" />
                      </coding>
                    </code>
                    <text>
                      <status value="generated" />
                      <div xmlns="http://www.w3.org/1999/xhtml">&lt;p class="SmPC-PLtext"&gt;&lt;u&gt;&lt;span lang="EN-GB" style="color: windowtext;"&gt;Pregnancy:&lt;/span&gt;&lt;/u&gt;&lt;/p&gt;
&lt;p class="SmPC-PLtext"&gt;&lt;span lang="EN-GB" style="color: windowtext;"&gt;Tell your doctor if you are pregnant, think you may be pregnant or are planning to have a baby. Influenza vaccines may be given in any trimester of pregnancy. &lt;/span&gt;&lt;/p&gt;
&lt;p class="SmPC-PLtext"&gt;&lt;span lang="EN-GB" style="color: windowtext;"&gt;&#160;&lt;/span&gt;&lt;/p&gt;
&lt;p class="SmPC-PLtext"&gt;&lt;u&gt;&lt;span lang="EN-GB" style="color: windowtext;"&gt;Breast-feeding:&lt;/span&gt;&lt;/u&gt;&lt;/p&gt;
&lt;p class="SmPC-PLtext"&gt;&lt;span lang="EN-GB" style="color: windowtext;"&gt;Use of &lt;/span&gt;&lt;span style="mso-fareast-font-family: 'MS Mincho'; color: windowtext; mso-ansi-language: EN-US;"&gt;Flucelvax Tetra&lt;/span&gt;&lt;span style="mso-fareast-font-family: 'MS Mincho'; mso-ansi-language: EN-US;"&gt; &lt;/span&gt;&lt;span lang="EN-GB" style="color: windowtext;"&gt;during breast-feeding has not been studied. Flucelvax Tetra may be given during breast-feeding.&lt;/span&gt;&lt;/p&gt;</div>
                    </text>
                  </section>
                  <section id="1086c5c0-25e0-ed11-a7c7-000d3aaa0c5f">
                    <title value="Driving and using machines" />
                    <code>
                      <coding>
                        <system value="https://spor.ema.europa.eu/rmswi/#/lists/200000029659/terms/200000029903" />
                        <code value="200000029903" />
                        <display value="Driving and using machines" />
                      </coding>
                    </code>
                    <text>
                      <status value="generated" />
                      <div xmlns="http://www.w3.org/1999/xhtml">&lt;p class="SmPC-PLtext"&gt;&lt;span style="mso-fareast-font-family: 'MS Mincho'; color: windowtext; mso-ansi-language: EN-US;"&gt;Flucelvax Tetra&lt;/span&gt;&lt;span style="mso-fareast-font-family: 'MS Mincho'; mso-ansi-language: EN-US;"&gt; &lt;/span&gt;&lt;span lang="EN-GB" style="color: windowtext;"&gt;has no or negligible effect on your ability to drive and use machines.&lt;/span&gt;&lt;/p&gt;</div>
                    </text>
                  </section>
                  <section id="1a86c5c0-25e0-ed11-a7c7-000d3aaa0c5f">
                    <title value="X contains {name the excipient(s)}" />
                    <code>
                      <coding>
                        <system value="https://spor.ema.europa.eu/rmswi/#/lists/200000029659/terms/200000029904" />
                        <code value="200000029904" />
                        <display value="X contains {name the excipient(s)}" />
                      </coding>
                    </code>
                    <text>
                      <status value="generated" />
                      <div xmlns="http://www.w3.org/1999/xhtml" />
                    </text>
                  </section>
                </section>
                <section id="4486c5c0-25e0-ed11-a7c7-000d3aaa0c5f">
                  <title value="3. How Flucelvax Tetra is given" />
                  <code>
                    <coding>
                      <system value="https://spor.ema.europa.eu/rmswi/#/lists/200000029659/terms/200000029905" />
                      <code value="200000029905" />
                      <display value="3. How to &lt;take&gt; &lt;use&gt; X" />
                    </coding>
                  </code>
                  <text>
                    <status value="generated" />
                    <div xmlns="http://www.w3.org/1999/xhtml">&lt;p class="SmPC-PLtext"&gt;&lt;span style="mso-fareast-font-family: 'MS Mincho'; color: windowtext; mso-ansi-language: EN-US;"&gt;Flucelvax Tetra&lt;/span&gt;&lt;span style="mso-fareast-font-family: 'MS Mincho'; mso-ansi-language: EN-US;"&gt; &lt;/span&gt;&lt;span lang="EN-GB" style="color: windowtext;"&gt;is given to you by your doctor or nurse as an injection into the muscle at the top of the upper arm (deltoid muscle).&lt;/span&gt;&lt;/p&gt;
&lt;p class="SmPC-PLtext"&gt;&lt;span lang="EN-GB" style="color: windowtext;"&gt;&#160;&lt;/span&gt;&lt;u&gt;&lt;span lang="EN-GB" style="color: windowtext;"&gt;Adults and children from 2 years of age:&lt;/span&gt;&lt;/u&gt;&lt;/p&gt;
&lt;p class="SmPC-PLtext"&gt;&lt;span lang="EN-GB" style="color: windowtext;"&gt;One dose of 0.5 ml&lt;/span&gt;&lt;/p&gt;
&lt;p class="SmPC-PLtext"&gt;&lt;span lang="EN-GB" style="color: windowtext;"&gt;If your child is younger than 9 years of age and has not been previously vaccinated against flu, a second dose should be given after at least 4 weeks.&lt;/span&gt;&lt;/p&gt;</div>
                  </text>
                  <section id="5686c5c0-25e0-ed11-a7c7-000d3aaa0c5f">
                    <title value="Use in children &#60;and adolescents&#62;" />
                    <code>
                      <coding>
                        <system value="https://spor.ema.europa.eu/rmswi/#/lists/200000029659/terms/200000029906" />
                        <code value="200000029906" />
                        <display value="Use in children &lt;and adolescents&gt;" />
                      </coding>
                    </code>
                    <text>
                      <status value="generated" />
                      <div xmlns="http://www.w3.org/1999/xhtml" />
                    </text>
                  </section>
                </section>
                <section id="8286c5c0-25e0-ed11-a7c7-000d3aaa0c5f">
                  <title value="4. Possible side effects" />
                  <code>
                    <coding>
                      <system value="https://spor.ema.europa.eu/rmswi/#/lists/200000029659/terms/200000029910" />
                      <code value="200000029910" />
                      <display value="4. Possible side effects" />
                    </coding>
                  </code>
                  <text>
                    <status value="generated" />
                    <div xmlns="http://www.w3.org/1999/xhtml">&lt;p class="MsoNormal" style="margin-right: -1.45pt; line-height: normal; mso-list: skip; tab-stops: 36.0pt;"&gt;&lt;span lang="EN-GB" style="mso-bidi-font-size: 11.0pt; mso-no-proof: yes;"&gt;Like all medicines, this medicine can cause side effects, although not everybody gets them.&lt;/span&gt;&lt;/p&gt;
&lt;p class="SmPC-PLtext"&gt;&lt;span lang="EN-GB" style="color: windowtext;"&gt;The following side effects have been reported during clinical trials and during general use:&lt;/span&gt;&lt;/p&gt;
&lt;p class="SmPC-PLtext"&gt;&lt;span lang="EN-GB" style="color: windowtext;"&gt;&#160;&lt;/span&gt;&lt;/p&gt;
&lt;p class="SmPC-PLtext" style="page-break-after: avoid;"&gt;&lt;strong style="mso-bidi-font-weight: normal;"&gt;&lt;span lang="EN-GB" style="color: windowtext;"&gt;Very serious side effects&lt;/span&gt;&lt;/strong&gt;&lt;/p&gt;
&lt;p class="SmPC-PLtext"&gt;&lt;span lang="EN-GB" style="color: windowtext;"&gt;Tell your doctor immediately or go to the casualty department at your nearest hospital if you experience the following side effect &#8211; you may need urgent medical attention or hospitalisation:&lt;/span&gt;&lt;/p&gt;
&lt;p class="SmPC-PLtext"&gt;&lt;span lang="EN-GB" style="color: windowtext;"&gt;&#160;&lt;/span&gt;&lt;/p&gt;
&lt;p class="SmPC-PLtext" style="margin-left: 14.2pt; text-indent: -14.2pt; mso-list: l0 level1 lfo1; tab-stops: 36.0pt;"&gt;&lt;!-- [if !supportLists]--&gt;&lt;span lang="EN-GB" style="color: windowtext;"&gt;&lt;span style="mso-list: Ignore;"&gt;&#8226;&lt;span style="font: 7.0pt 'Times New Roman';"&gt;&#160;&#160;&#160;&#160;&#160; &lt;/span&gt;&lt;/span&gt;&lt;/span&gt;&lt;!--[endif]--&gt;&lt;span lang="EN-GB" style="color: windowtext;"&gt;Difficulty in breathing, dizziness, a weak and rapid pulse and skin rash which are symptoms of an anaphylactic reaction (a very severe allergic reaction)&lt;/span&gt;&lt;/p&gt;
&lt;p class="SmPC-PLtext" style="tab-stops: 36.0pt;"&gt;&lt;span lang="EN-GB" style="color: windowtext;"&gt;&#160;&lt;/span&gt;&lt;/p&gt;
&lt;p class="SmPC-PLtext" style="page-break-after: avoid;"&gt;&lt;strong style="mso-bidi-font-weight: normal;"&gt;&lt;span lang="EN-GB" style="color: windowtext;"&gt;Serious side effects&lt;/span&gt;&lt;/strong&gt;&lt;/p&gt;
&lt;p class="SmPC-PLtext"&gt;&lt;span lang="EN-GB" style="color: windowtext;"&gt;Tell your doctor immediately if you experience any of the following side effects &#8211; you may need medical attention:&lt;/span&gt;&lt;/p&gt;
&lt;p class="SmPC-PLtext"&gt;&lt;span lang="EN-GB" style="color: windowtext;"&gt;&#160;&lt;/span&gt;&lt;/p&gt;
&lt;p class="SmPC-PLtext" style="margin-left: 14.2pt; text-indent: -14.2pt; mso-list: l0 level1 lfo1; tab-stops: 36.0pt;"&gt;&lt;!-- [if !supportLists]--&gt;&lt;span lang="EN-GB" style="color: windowtext;"&gt;&lt;span style="mso-list: Ignore;"&gt;&#8226;&lt;span style="font: 7.0pt 'Times New Roman';"&gt;&#160;&#160;&#160;&#160;&#160; &lt;/span&gt;&lt;/span&gt;&lt;/span&gt;&lt;!--[endif]--&gt;&lt;span lang="EN-GB" style="color: windowtext;"&gt;You feel weak, you have difficulty moving around or you experience numbness or tingling in your limbs. These can be symptoms of &lt;span style="mso-spacerun: yes;"&gt;&#160;&lt;/span&gt;Guillain-Barr&#233; syndrome (GBS), an autoimmune disease caused by your body&#8217;s own immune system.&lt;/span&gt;&lt;/p&gt;
&lt;p class="SmPC-PLtext" style="margin-left: 14.2pt; text-indent: -14.2pt; mso-list: l0 level1 lfo1; tab-stops: 36.0pt;"&gt;&lt;!-- [if !supportLists]--&gt;&lt;span lang="EN-GB" style="color: windowtext;"&gt;&lt;span style="mso-list: Ignore;"&gt;&#8226;&lt;span style="font: 7.0pt 'Times New Roman';"&gt;&#160;&#160;&#160;&#160;&#160; &lt;/span&gt;&lt;/span&gt;&lt;/span&gt;&lt;!--[endif]--&gt;&lt;span lang="EN-GB" style="color: windowtext;"&gt;Extensive swelling of injected limb&lt;/span&gt;&lt;/p&gt;
&lt;p class="SmPC-PLtext"&gt;&lt;span lang="EN-GB" style="color: windowtext;"&gt;&#160;&lt;/span&gt;&lt;/p&gt;
&lt;p class="SmPC-PLtext"&gt;&lt;strong style="mso-bidi-font-weight: normal;"&gt;&lt;span lang="EN-GB" style="color: windowtext;"&gt;Mild side effects&lt;/span&gt;&lt;/strong&gt;&lt;/p&gt;
&lt;p class="SmPC-PLtext"&gt;&lt;u&gt;&lt;span lang="EN-GB" style="color: windowtext;"&gt;Very common&lt;/span&gt;&lt;/u&gt;&lt;span lang="EN-GB" style="color: windowtext;"&gt; (may affect more than 1 in 10 people):&lt;/span&gt;&lt;/p&gt;
&lt;p class="SmPC-PLtext" style="margin-left: 14.2pt; text-indent: -14.2pt; mso-list: l0 level1 lfo1; tab-stops: 36.0pt;"&gt;&lt;!-- [if !supportLists]--&gt;&lt;span lang="EN-GB" style="color: windowtext;"&gt;&lt;span style="mso-list: Ignore;"&gt;&#8226;&lt;span style="font: 7.0pt 'Times New Roman';"&gt;&#160;&#160;&#160;&#160;&#160; &lt;/span&gt;&lt;/span&gt;&lt;/span&gt;&lt;!--[endif]--&gt;&lt;span lang="EN-GB" style="color: windowtext;"&gt;Injection site pain, bruising, reddening and hardening or swelling at the site of the injection&lt;/span&gt;&lt;/p&gt;
&lt;p class="SmPC-PLtext" style="margin-left: 14.2pt; text-indent: -14.2pt; mso-list: l0 level1 lfo1; tab-stops: 36.0pt;"&gt;&lt;!-- [if !supportLists]--&gt;&lt;span lang="EN-GB" style="color: windowtext;"&gt;&lt;span style="mso-list: Ignore;"&gt;&#8226;&lt;span style="font: 7.0pt 'Times New Roman';"&gt;&#160;&#160;&#160;&#160;&#160; &lt;/span&gt;&lt;/span&gt;&lt;/span&gt;&lt;!--[endif]--&gt;&lt;span lang="EN-GB" style="color: windowtext;"&gt;Headache&lt;/span&gt;&lt;/p&gt;
&lt;p class="SmPC-PLtext" style="margin-left: 14.2pt; text-indent: -14.2pt; mso-list: l0 level1 lfo1; tab-stops: 36.0pt;"&gt;&lt;!-- [if !supportLists]--&gt;&lt;span lang="EN-GB" style="color: windowtext;"&gt;&lt;span style="mso-list: Ignore;"&gt;&#8226;&lt;span style="font: 7.0pt 'Times New Roman';"&gt;&#160;&#160;&#160;&#160;&#160; &lt;/span&gt;&lt;/span&gt;&lt;/span&gt;&lt;!--[endif]--&gt;&lt;span lang="EN-GB" style="color: windowtext;"&gt;Muscle pain &lt;span style="mso-spacerun: yes;"&gt;&#160;&lt;/span&gt;&lt;/span&gt;&lt;/p&gt;
&lt;p class="SmPC-PLtext" style="margin-left: 14.2pt; text-indent: -14.2pt; mso-list: l0 level1 lfo1; tab-stops: 36.0pt;"&gt;&lt;!-- [if !supportLists]--&gt;&lt;span lang="EN-GB" style="color: windowtext;"&gt;&lt;span style="mso-list: Ignore;"&gt;&#8226;&lt;span style="font: 7.0pt 'Times New Roman';"&gt;&#160;&#160;&#160;&#160;&#160; &lt;/span&gt;&lt;/span&gt;&lt;/span&gt;&lt;!--[endif]--&gt;&lt;span lang="EN-GB" style="color: windowtext;"&gt;Tiredness &lt;/span&gt;&lt;/p&gt;
&lt;p class="SmPC-PLtext" style="margin-left: 14.2pt; text-indent: -14.2pt; mso-list: l0 level1 lfo1; tab-stops: 36.0pt;"&gt;&lt;!-- [if !supportLists]--&gt;&lt;span lang="EN-GB" style="color: windowtext;"&gt;&lt;span style="mso-list: Ignore;"&gt;&#8226;&lt;span style="font: 7.0pt 'Times New Roman';"&gt;&#160;&#160;&#160;&#160;&#160; &lt;/span&gt;&lt;/span&gt;&lt;/span&gt;&lt;!--[endif]--&gt;&lt;span lang="EN-GB" style="color: windowtext;"&gt;Loss of appetite&lt;/span&gt;&lt;/p&gt;
&lt;p class="SmPC-PLtext" style="margin-left: 14.2pt; text-indent: -14.2pt; mso-list: l0 level1 lfo1; tab-stops: 36.0pt;"&gt;&lt;!-- [if !supportLists]--&gt;&lt;span lang="EN-GB" style="color: windowtext;"&gt;&lt;span style="mso-list: Ignore;"&gt;&#8226;&lt;span style="font: 7.0pt 'Times New Roman';"&gt;&#160;&#160;&#160;&#160;&#160; &lt;/span&gt;&lt;/span&gt;&lt;/span&gt;&lt;!--[endif]--&gt;&lt;span lang="EN-GB" style="color: windowtext;"&gt;Irritability (only reported in children from 2 to &lt; 6 years)&lt;/span&gt;&lt;/p&gt;
&lt;p class="SmPC-PLtext" style="margin-left: 14.2pt; text-indent: -14.2pt; mso-list: l0 level1 lfo1; tab-stops: 36.0pt;"&gt;&lt;!-- [if !supportLists]--&gt;&lt;span lang="EN-GB" style="color: windowtext;"&gt;&lt;span style="mso-list: Ignore;"&gt;&#8226;&lt;span style="font: 7.0pt 'Times New Roman';"&gt;&#160;&#160;&#160;&#160;&#160; &lt;/span&gt;&lt;/span&gt;&lt;/span&gt;&lt;!--[endif]--&gt;&lt;span lang="EN-GB" style="color: windowtext;"&gt;Sleepiness (only reported in children 2 to &lt; 6 years)&lt;/span&gt;&lt;/p&gt;
&lt;p class="SmPC-PLtext"&gt;&lt;span lang="EN-GB" style="color: windowtext;"&gt;Hardening or swelling at the site of the injection, headache, muscle pain, and tiredness were common in the elderly.&lt;/span&gt;&lt;/p&gt;
&lt;p class="SmPC-PLtext"&gt;&lt;span lang="EN-GB" style="color: windowtext;"&gt;Bruising at the site of the injection was common in adults, eldery and children 9 to &lt; 18 years.&lt;/span&gt;&lt;/p&gt;
&lt;p class="SmPC-PLtext"&gt;&lt;span lang="EN-GB" style="color: windowtext;"&gt;Headache was common in the elderly.&lt;/span&gt;&lt;/p&gt;
&lt;p class="SmPC-PLtext"&gt;&lt;span lang="EN-GB" style="color: windowtext;"&gt;Loss of appetite was common in adults, eldery and children 9 to &lt; 18 years.&lt;/span&gt;&lt;/p&gt;
&lt;p class="SmPC-PLtext"&gt;&lt;span lang="EN-GB" style="color: windowtext;"&gt;&#160;&lt;/span&gt;&lt;/p&gt;
&lt;p class="SmPC-PLtext" style="page-break-after: avoid;"&gt;&lt;u&gt;&lt;span lang="EN-GB" style="color: windowtext;"&gt;Common&lt;/span&gt;&lt;/u&gt;&lt;span lang="EN-GB" style="color: windowtext;"&gt; (may affect up to 1 in 10 people):&lt;/span&gt;&lt;/p&gt;
&lt;p class="SmPC-PLtext" style="margin-left: 14.2pt; text-indent: -14.2pt; mso-list: l0 level1 lfo1; tab-stops: 36.0pt;"&gt;&lt;!-- [if !supportLists]--&gt;&lt;span lang="EN-GB" style="color: windowtext;"&gt;&lt;span style="mso-list: Ignore;"&gt;&#8226;&lt;span style="font: 7.0pt 'Times New Roman';"&gt;&#160;&#160;&#160;&#160;&#160; &lt;/span&gt;&lt;/span&gt;&lt;/span&gt;&lt;!--[endif]--&gt;&lt;span lang="EN-GB" style="color: windowtext;"&gt;Nausea, vomiting, diarrhoea &lt;/span&gt;&lt;/p&gt;
&lt;p class="SmPC-PLtext" style="margin-left: 14.2pt; text-indent: -14.2pt; mso-list: l0 level1 lfo1; tab-stops: 36.0pt;"&gt;&lt;!-- [if !supportLists]--&gt;&lt;span lang="EN-GB" style="color: windowtext;"&gt;&lt;span style="mso-list: Ignore;"&gt;&#8226;&lt;span style="font: 7.0pt 'Times New Roman';"&gt;&#160;&#160;&#160;&#160;&#160; &lt;/span&gt;&lt;/span&gt;&lt;/span&gt;&lt;!--[endif]--&gt;&lt;span lang="EN-GB" style="color: windowtext;"&gt;Joint pain&lt;/span&gt;&lt;/p&gt;
&lt;p class="SmPC-PLtext" style="margin-left: 14.2pt; text-indent: -14.2pt; mso-list: l0 level1 lfo1; tab-stops: 36.0pt;"&gt;&lt;!-- [if !supportLists]--&gt;&lt;span lang="EN-GB" style="color: windowtext;"&gt;&lt;span style="mso-list: Ignore;"&gt;&#8226;&lt;span style="font: 7.0pt 'Times New Roman';"&gt;&#160;&#160;&#160;&#160;&#160; &lt;/span&gt;&lt;/span&gt;&lt;/span&gt;&lt;!--[endif]--&gt;&lt;span lang="EN-GB" style="color: windowtext;"&gt;Shivering&lt;/span&gt;&lt;/p&gt;
&lt;p class="SmPC-PLtext" style="margin-left: 14.2pt; text-indent: -14.2pt; mso-list: l0 level1 lfo1; tab-stops: 36.0pt;"&gt;&lt;!-- [if !supportLists]--&gt;&lt;span lang="EN-GB" style="color: windowtext;"&gt;&lt;span style="mso-list: Ignore;"&gt;&#8226;&lt;span style="font: 7.0pt 'Times New Roman';"&gt;&#160;&#160;&#160;&#160;&#160; &lt;/span&gt;&lt;/span&gt;&lt;/span&gt;&lt;!--[endif]--&gt;&lt;span lang="EN-GB" style="color: windowtext;"&gt;Change in eating habits (only reported in children from 2 to &lt; 6 years)&lt;/span&gt;&lt;/p&gt;
&lt;p class="SmPC-PLtext" style="margin-left: 14.2pt; text-indent: -14.2pt; mso-list: l0 level1 lfo1; tab-stops: 36.0pt;"&gt;&lt;!-- [if !supportLists]--&gt;&lt;span lang="EN-GB" style="color: windowtext;"&gt;&lt;span style="mso-list: Ignore;"&gt;&#8226;&lt;span style="font: 7.0pt 'Times New Roman';"&gt;&#160;&#160;&#160;&#160;&#160; &lt;/span&gt;&lt;/span&gt;&lt;/span&gt;&lt;!--[endif]--&gt;&lt;span lang="EN-GB" style="color: windowtext;"&gt;Fever (&lt;u&gt;&gt;&lt;/u&gt; 38&#176;C)&lt;/span&gt;&lt;/p&gt;
&lt;p class="SmPC-PLtext"&gt;&lt;span lang="EN-GB" style="color: windowtext;"&gt;Vomiting was uncommon in the elderly.&lt;/span&gt;&lt;/p&gt;
&lt;p class="SmPC-PLtext"&gt;&lt;span lang="EN-GB" style="color: windowtext;"&gt;Fever was uncommon in adults and the elderly.&lt;/span&gt;&lt;/p&gt;
&lt;p class="SmPC-PLtext"&gt;&lt;span lang="EN-GB" style="color: windowtext;"&gt;&#160;&lt;/span&gt;&lt;/p&gt;
&lt;p class="SmPC-PLtext"&gt;&lt;u&gt;&lt;span lang="EN-GB" style="color: windowtext;"&gt;Not known&lt;/span&gt;&lt;/u&gt;&lt;span lang="EN-GB" style="color: windowtext;"&gt; (frequency cannot be estimated from the available data):&lt;/span&gt;&lt;/p&gt;
&lt;p class="SmPC-PLtext" style="margin-left: 14.2pt; text-indent: -14.2pt; mso-list: l0 level1 lfo1; tab-stops: 36.0pt;"&gt;&lt;!-- [if !supportLists]--&gt;&lt;span lang="EN-GB" style="color: windowtext;"&gt;&lt;span style="mso-list: Ignore;"&gt;&#8226;&lt;span style="font: 7.0pt 'Times New Roman';"&gt;&#160;&#160;&#160;&#160;&#160; &lt;/span&gt;&lt;/span&gt;&lt;/span&gt;&lt;!--[endif]--&gt;&lt;span lang="EN-GB" style="color: windowtext;"&gt;Numbness and tingling sensation (paraesthesia)&lt;/span&gt;&lt;/p&gt;
&lt;p class="SmPC-PLtext" style="margin-left: 14.2pt; text-indent: -14.2pt; mso-list: l0 level1 lfo1; tab-stops: 36.0pt;"&gt;&lt;!-- [if !supportLists]--&gt;&lt;span lang="EN-GB" style="color: windowtext;"&gt;&lt;span style="mso-list: Ignore;"&gt;&#8226;&lt;span style="font: 7.0pt 'Times New Roman';"&gt;&#160;&#160;&#160;&#160;&#160; &lt;/span&gt;&lt;/span&gt;&lt;/span&gt;&lt;!--[endif]--&gt;&lt;span lang="EN-GB" style="color: windowtext;"&gt;Generalised skin reactions including itching, bumps on the skin (pruritis, urticaria) or non-specific rash &lt;/span&gt;&lt;/p&gt;</div>
                  </text>
                  <section id="9d86c5c0-25e0-ed11-a7c7-000d3aaa0c5f">
                    <title value="Reporting of side effects" />
                    <code>
                      <coding>
                        <system value="https://spor.ema.europa.eu/rmswi/#/lists/200000029659/terms/200000029912" />
                        <code value="200000029912" />
                        <display value="Reporting of side effects" />
                      </coding>
                    </code>
                    <text>
                      <status value="generated" />
                      <div xmlns="http://www.w3.org/1999/xhtml">&lt;p class="BodytextAgency" style="margin-bottom: 0cm; line-height: normal;"&gt;&lt;span lang="EN-GB" style="font-size: 11.0pt; font-family: 'Times New Roman',serif; mso-no-proof: yes;"&gt;If you get any side effects, talk to your doctor, pharmacist or nurse.&lt;/span&gt;&lt;span lang="EN-GB" style="font-size: 11.0pt; font-family: 'Times New Roman',serif;"&gt; This includes any possible &lt;span style="mso-no-proof: yes;"&gt;side effects not listed in this leaflet.&lt;/span&gt;&lt;/span&gt;&lt;span lang="EN-GB" style="font-size: 11.0pt;"&gt; &lt;/span&gt;&lt;span lang="EN-GB" style="font-size: 11.0pt; font-family: 'Times New Roman',serif;"&gt;You can also report side effects directly via &lt;/span&gt;&lt;span lang="EN-GB" style="font-size: 11.0pt; font-family: 'Times New Roman',serif; mso-bidi-font-family: Verdana; background: lightgrey; mso-highlight: lightgrey;"&gt;the national reporting system listed in &lt;/span&gt;&lt;span lang="EN-GB"&gt;&lt;a href="http://www.ema.europa.eu/docs/en_GB/document_library/Template_or_form/2013/03/WC500139752.doc"&gt;&lt;span style="font-size: 11.0pt; font-family: 'Times New Roman',serif; background: lightgrey; mso-highlight: lightgrey;"&gt;Appendix V&lt;/span&gt;&lt;/a&gt;&lt;/span&gt;&lt;span lang="EN-GB" style="font-size: 11.0pt; font-family: 'Times New Roman',serif;"&gt;.&lt;/span&gt;&lt;span lang="EN-GB" style="font-size: 11.0pt; font-family: 'Times New Roman',serif; mso-bidi-font-family: Verdana;"&gt;* By reporting side effects, you can help provide more information on the safety of this medicine.&lt;/span&gt;&lt;/p&gt;</div>
                    </text>
                  </section>
                </section>
                <section id="a886c5c0-25e0-ed11-a7c7-000d3aaa0c5f">
                  <title value="5. How to store Flucelvax Tetra" />
                  <code>
                    <coding>
                      <system value="https://spor.ema.europa.eu/rmswi/#/lists/200000029659/terms/200000029913" />
                      <code value="200000029913" />
                      <display value="5. How to store X" />
                    </coding>
                  </code>
                  <text>
                    <status value="generated" />
                    <div xmlns="http://www.w3.org/1999/xhtml">&lt;p class="MsoNormal" style="margin-right: -.1pt; line-height: normal; mso-list: skip; tab-stops: 36.0pt;"&gt;&lt;span lang="EN-GB" style="mso-bidi-font-size: 11.0pt; mso-no-proof: yes;"&gt;Keep this&#160;&lt;span class="SmPC-PLtextChar"&gt;vaccine&lt;/span&gt; out of the sight and reach of children.&lt;/span&gt;&lt;/p&gt;
&lt;p class="MsoNormal" style="margin-right: -.1pt; line-height: normal; mso-list: skip; tab-stops: 36.0pt;"&gt;&lt;span lang="EN-GB" style="mso-bidi-font-size: 11.0pt; mso-no-proof: yes;"&gt;&#160;&lt;/span&gt;&lt;/p&gt;
&lt;p class="SmPC-PLtext"&gt;&lt;span lang="EN-GB" style="color: windowtext;"&gt;Store in a refrigerator (2 &#176;C&#160;to&#160;8 &#176;C). Do not freeze.&lt;/span&gt;&lt;/p&gt;
&lt;p class="SmPC-PLtext"&gt;&lt;span lang="EN-GB" style="color: windowtext;"&gt;Keep the pre-filled syringe in the outer carton in order to protect from light.&lt;/span&gt;&lt;/p&gt;
&lt;p class="MsoNormal" style="margin-right: -.1pt; line-height: normal; mso-list: skip; tab-stops: 36.0pt;"&gt;&lt;span lang="EN-GB" style="mso-bidi-font-size: 11.0pt; mso-no-proof: yes;"&gt;&#160;&lt;/span&gt;&lt;/p&gt;
&lt;p class="MsoNormal" style="margin-right: -.1pt; line-height: normal; mso-list: skip; tab-stops: 36.0pt;"&gt;&lt;span lang="EN-GB" style="mso-bidi-font-size: 11.0pt; mso-no-proof: yes;"&gt;Do not use this &lt;span class="SmPC-PLtextChar"&gt;vaccine&lt;/span&gt; after the expiry date which is stated on the label and carton after &lt;span class="SmPC-PLtextChar"&gt;EXP&lt;/span&gt;. The expiry date refers to the last day of that month.&lt;/span&gt;&lt;/p&gt;
&lt;p class="MsoNormal" style="margin-right: -.1pt; line-height: normal; mso-list: skip; tab-stops: 36.0pt;"&gt;&lt;span lang="EN-GB" style="mso-bidi-font-size: 11.0pt; mso-no-proof: yes;"&gt;&#160;&lt;/span&gt;&lt;/p&gt;
&lt;p class="MsoNormal" style="margin-right: -.1pt; line-height: normal; mso-list: skip; tab-stops: 36.0pt;"&gt;&lt;span lang="EN-GB" style="mso-bidi-font-size: 11.0pt; mso-no-proof: yes;"&gt;Do not throw away any medicines via wastewater or household waste. Ask your pharmacist how to throw away medicines you no longer use. These measures will help protect the environment.&lt;/span&gt;&lt;/p&gt;</div>
                  </text>
                </section>
                <section id="b486c5c0-25e0-ed11-a7c7-000d3aaa0c5f">
                  <title value="6. Contents of the pack and other information" />
                  <code>
                    <coding>
                      <system value="https://spor.ema.europa.eu/rmswi/#/lists/200000029659/terms/200000029914" />
                      <code value="200000029914" />
                      <display value="6. Contents of the pack and other information" />
                    </coding>
                  </code>
                  <text>
                    <status value="generated" />
                    <div xmlns="http://www.w3.org/1999/xhtml" />
                  </text>
                  <section id="c086c5c0-25e0-ed11-a7c7-000d3aaa0c5f">
                    <title value="What Flucelvax Tetra contains" />
                    <code>
                      <coding>
                        <system value="https://spor.ema.europa.eu/rmswi/#/lists/200000029659/terms/200000029915" />
                        <code value="200000029915" />
                        <display value="What X contains" />
                      </coding>
                    </code>
                    <text>
                      <status value="generated" />
                      <div xmlns="http://www.w3.org/1999/xhtml">&lt;p class="MsoNormal" style="margin-right: -.1pt; line-height: normal; page-break-after: avoid; tab-stops: 36.0pt;"&gt;&lt;span lang="EN-GB" style="mso-bidi-font-size: 11.0pt;"&gt;The active substances are&lt;/span&gt;&lt;span lang="EN-GB" style="mso-bidi-font-size: 11.0pt; mso-ansi-language: EN-US; mso-no-proof: yes;"&gt; &lt;/span&gt;&lt;span class="SmPC-PLtextChar"&gt;&lt;span lang="EN-GB"&gt;influenza virus surface antigens (haemagglutinin and neuraminidase), inactivated, of the following strains*:&lt;/span&gt;&lt;/span&gt;&lt;/p&gt;
&lt;p class="SmPC-PLtext"&gt;&lt;span style="color: windowtext; mso-ansi-language: EN-US;"&gt;&#160;&lt;/span&gt;&lt;/p&gt;
&lt;p class="MsoNormal" style="margin-bottom: 6.0pt; line-height: normal; tab-stops: 10.0cm;"&gt;&lt;span lang="EN-GB" style="mso-fareast-language: DE;"&gt;A/Wisconsin/588/2019 (H1N1)pdm09-like strain (A/Delaware/55/2019 CVR-45) &lt;/span&gt;&lt;span lang="EN-GB" style="mso-bidi-font-size: 11.0pt; mso-fareast-language: DE;"&gt;15&#160;micrograms HA**&lt;/span&gt;&lt;/p&gt;
&lt;p class="MsoNormal" style="margin-bottom: 6.0pt; line-height: normal; tab-stops: 10.0cm;"&gt;&lt;span lang="EN-GB" style="mso-fareast-language: DE;"&gt;A/Darwin/6/2021 (H3N2)-like strain (A/Darwin/11/2021, wild type) &lt;/span&gt;&lt;span lang="EN-GB" style="mso-bidi-font-size: 11.0pt; mso-fareast-language: DE;"&gt;15&#160;micrograms HA**&lt;/span&gt;&lt;/p&gt;
&lt;p class="MsoNormal" style="margin-bottom: 6.0pt; line-height: normal; tab-stops: 10.0cm;"&gt;&lt;span lang="EN-GB"&gt;B/Austria/1359417/2021-like strain (B/Singapore/WUH4618/2021, wild type) &lt;/span&gt;&lt;span lang="EN-GB" style="mso-bidi-font-size: 11.0pt; mso-fareast-language: DE;"&gt;15&#160;micrograms HA**&lt;/span&gt;&lt;/p&gt;
&lt;p class="SmPC-PLtext" style="tab-stops: 1.0cm 326.05pt;"&gt;&lt;span lang="EN-GB" style="mso-bidi-font-size: 10.0pt; color: windowtext; mso-no-proof: no;"&gt;B/Phuket/3073/2013-like strain (B/Singapore/INFTT-16-0610/2016, wild type) 15&#160;micrograms HA**&lt;/span&gt;&lt;/p&gt;
&lt;p class="SmPC-PLtext" style="tab-stops: 1.0cm 326.05pt;"&gt;&lt;span lang="EN-GB" style="color: windowtext;"&gt;&#160;&lt;/span&gt;&lt;/p&gt;
&lt;p class="SmPC-PLtext" style="tab-stops: 1.0cm 326.05pt;"&gt;&lt;span lang="EN-GB" style="color: windowtext;"&gt;per&#160;0.5&#160;ml dose&lt;/span&gt;&lt;/p&gt;
&lt;p class="SmPC-PLtext"&gt;&lt;span lang="EN-GB" style="color: windowtext;"&gt;&#8230;&#8230;&#8230;&#8230;&#8230;&#8230;&#8230;&#8230;&#8230;&#8230;&#8230;&#8230;&#8230;&#8230;&#8230;.&lt;/span&gt;&lt;/p&gt;
&lt;p class="SmPC-PLtext" style="margin-left: 1.0cm; text-indent: -1.0cm;"&gt;&lt;span style="color: windowtext; mso-ansi-language: EN-US;"&gt;*&lt;span style="mso-tab-count: 1;"&gt;&#160;&#160;&#160;&#160;&#160;&#160;&#160; &lt;/span&gt;propagated in Madin Darby Canine Kidney (MDCK) cells (this is the special cell culture in which the influenza virus is grown); &lt;/span&gt;&lt;/p&gt;
&lt;p class="SmPC-PLtext" style="margin-left: 1.0cm; text-indent: -1.0cm;"&gt;&lt;span style="color: windowtext; mso-ansi-language: EN-US;"&gt;**&lt;span style="mso-tab-count: 1;"&gt;&#160;&#160;&#160;&#160;&#160; &lt;/span&gt;haemagglutinin&lt;/span&gt;&lt;/p&gt;
&lt;p class="MsoNormal" style="margin-right: -.1pt; line-height: normal; mso-list: skip; tab-stops: 36.0pt;"&gt;&lt;span style="mso-bidi-font-size: 11.0pt; mso-ansi-language: EN-US; mso-no-proof: yes;"&gt;&#160;&lt;/span&gt;&lt;/p&gt;
&lt;p class="MsoNormal" style="margin-right: -.1pt; line-height: normal; mso-list: skip; tab-stops: 36.0pt;"&gt;&lt;span style="mso-bidi-font-size: 11.0pt; mso-ansi-language: EN-US; mso-no-proof: yes;"&gt;This vaccine complies with the World Health Organisation (WHO) recommendation (northern hemisphere) and EU recommendation for the 2022/2023 SEASON.&lt;/span&gt;&lt;/p&gt;
&lt;p class="MsoNormal" style="margin-right: -.1pt; line-height: normal; mso-list: skip; tab-stops: 36.0pt;"&gt;&lt;span style="mso-bidi-font-size: 11.0pt; mso-ansi-language: EN-US; mso-no-proof: yes;"&gt;&#160;&lt;/span&gt;&lt;/p&gt;
&lt;p class="MsoNormal" style="margin-right: -.1pt; line-height: normal; mso-list: skip; tab-stops: 36.0pt;"&gt;&lt;span style="mso-bidi-font-size: 11.0pt; mso-ansi-language: EN-US; mso-no-proof: yes;"&gt;The other ingredients are: &lt;/span&gt;&lt;span class="SmPC-PLtextChar"&gt;&lt;span lang="EN-GB"&gt;sodium chloride, potassium chloride, magnesium chloride hexahydrate, disodium phosphate dihydrate, potassium dihydrogen phosphate and water for injections.&lt;/span&gt;&lt;/span&gt;&lt;/p&gt;</div>
                    </text>
                  </section>
                  <section id="c586c5c0-25e0-ed11-a7c7-000d3aaa0c5f">
                    <title value="What Flucelvax Tetra looks like and contents of the pack" />
                    <code>
                      <coding>
                        <system value="https://spor.ema.europa.eu/rmswi/#/lists/200000029659/terms/200000029916" />
                        <code value="200000029916" />
                        <display value="What X looks like and contents of the pack" />
                      </coding>
                    </code>
                    <text>
                      <status value="generated" />
                      <div xmlns="http://www.w3.org/1999/xhtml">&lt;p class="SmPC-PLtext"&gt;&lt;span style="mso-fareast-font-family: 'MS Mincho'; color: windowtext; mso-ansi-language: EN-US;"&gt;Flucelvax Tetra&lt;/span&gt;&lt;span style="mso-fareast-font-family: 'MS Mincho'; mso-ansi-language: EN-US;"&gt; &lt;/span&gt;&lt;span lang="EN-GB" style="color: windowtext;"&gt;is a suspension for injection in a pre-filled syringe (ready to use syringe). &lt;br /&gt;&lt;/span&gt;&lt;span style="mso-fareast-font-family: 'MS Mincho'; color: windowtext; mso-ansi-language: EN-US;"&gt;Flucelvax Tetra&lt;/span&gt;&lt;span style="mso-fareast-font-family: 'MS Mincho'; mso-ansi-language: EN-US;"&gt; &lt;/span&gt;&lt;span lang="EN-GB" style="color: windowtext;"&gt;is a clear to slightly opalescent suspension.&lt;/span&gt;&lt;/p&gt;
&lt;p class="SmPC-PLtext"&gt;&lt;span lang="EN-GB" style="color: windowtext;"&gt;A single syringe contains 0.5&#160;ml of suspension for injection.&lt;/span&gt;&lt;/p&gt;
&lt;p class="SmPC-PLtext"&gt;&lt;span style="mso-fareast-font-family: 'MS Mincho'; color: windowtext; mso-ansi-language: EN-US;"&gt;Flucelvax Tetra&lt;/span&gt;&lt;span style="mso-fareast-font-family: 'MS Mincho'; mso-ansi-language: EN-US;"&gt; &lt;/span&gt;&lt;span lang="EN-GB" style="color: windowtext;"&gt;is available in packs containing 1 pre-filled syringe with or without needle or 10 pre-filled syringes with or without needles.&lt;/span&gt;&lt;/p&gt;
&lt;p class="SmPC-PLtext"&gt;&lt;span lang="EN-GB" style="color: windowtext;"&gt;Not all pack sizes may be marketed.&lt;/span&gt;&lt;/p&gt;</div>
                    </text>
                  </section>
                  <section id="cb86c5c0-25e0-ed11-a7c7-000d3aaa0c5f">
                    <title value="Marketing Authorisation Holder and Manufacturer" />
                    <code>
                      <coding>
                        <system value="https://spor.ema.europa.eu/rmswi/#/lists/200000029659/terms/200000029917" />
                        <code value="200000029917" />
                        <display value="Marketing Authorisation Holder and Manufacturer" />
                      </coding>
                    </code>
                    <text>
                      <status value="generated" />
                      <div xmlns="http://www.w3.org/1999/xhtml">&lt;p class="MsoNormal" style="margin-right: -.1pt; line-height: normal; mso-list: skip; tab-stops: 36.0pt;"&gt;&lt;strong style="mso-bidi-font-weight: normal;"&gt;&lt;span lang="EN-GB" style="mso-bidi-font-size: 11.0pt;"&gt;Marketing Authorisation Holder &lt;/span&gt;&lt;/strong&gt;&lt;/p&gt;
&lt;p class="SmPC-PLtext"&gt;&lt;span style="color: windowtext; mso-ansi-language: EN-US;"&gt;Seqirus Netherlands B.V.&lt;/span&gt;&lt;/p&gt;
&lt;p class="SmPC-PLtext" style="mso-pagination: widow-orphan lines-together; page-break-after: avoid;"&gt;&lt;span lang="NL" style="color: windowtext; mso-ansi-language: NL;"&gt;Paasheuvelweg 28&lt;/span&gt;&lt;/p&gt;
&lt;p class="SmPC-PLtext" style="mso-pagination: widow-orphan lines-together; page-break-after: avoid;"&gt;&lt;span lang="NL" style="color: windowtext; mso-ansi-language: NL;"&gt;1105BJ Amsterdam&lt;/span&gt;&lt;/p&gt;
&lt;p class="SmPC-PLtext"&gt;&lt;span lang="NL" style="color: windowtext; mso-ansi-language: NL;"&gt;Netherlands&lt;/span&gt;&lt;/p&gt;
&lt;p class="SmPC-PLtext"&gt;&lt;span lang="NL" style="color: windowtext; mso-ansi-language: NL;"&gt;&#160;&lt;/span&gt;&lt;/p&gt;
&lt;p class="SmPC-PLtext" style="mso-pagination: widow-orphan lines-together; page-break-after: avoid;"&gt;&lt;strong style="mso-bidi-font-weight: normal;"&gt;&lt;span lang="NL" style="color: windowtext; mso-ansi-language: NL;"&gt;Manufacturer&lt;/span&gt;&lt;/strong&gt;&lt;/p&gt;
&lt;p class="MsoNormal" style="line-height: normal; page-break-after: avoid;"&gt;&lt;span lang="NL" style="mso-bidi-font-size: 11.0pt; mso-ansi-language: NL;"&gt;Seqirus Netherlands B.V.&lt;/span&gt;&lt;/p&gt;
&lt;p class="SmPC-PLtext" style="mso-pagination: widow-orphan lines-together; page-break-after: avoid;"&gt;&lt;span lang="NL" style="color: windowtext; mso-ansi-language: NL;"&gt;Paasheuvelweg 28&lt;/span&gt;&lt;/p&gt;
&lt;p class="SmPC-PLtext" style="mso-pagination: widow-orphan lines-together; page-break-after: avoid;"&gt;&lt;span style="color: windowtext; mso-ansi-language: EN-US;"&gt;1105BJ Amsterdam&lt;/span&gt;&lt;/p&gt;
&lt;p class="SmPC-PLtext"&gt;&lt;span style="color: windowtext; mso-ansi-language: EN-US; mso-no-proof: no;"&gt;Netherlands&lt;/span&gt;&lt;/p&gt;
&lt;p class="SmPC-PLtext"&gt;&lt;span style="color: windowtext; mso-ansi-language: EN-US;"&gt;&#160;&lt;/span&gt;&lt;/p&gt;
&lt;p class="MsoNormal"&gt;&lt;span lang="EN-GB" style="mso-bidi-font-size: 11.0pt; mso-no-proof: yes;"&gt;For any information about this medicine, please contact the local representative of the Marketing Authorization Holder:&lt;/span&gt;&lt;/p&gt;
&lt;p class="MsoNormal"&gt;&lt;span lang="EN-GB" style="mso-bidi-font-size: 11.0pt; mso-no-proof: yes;"&gt;&#160;&lt;/span&gt;&lt;/p&gt;
&lt;table class="MsoTableGrid" style="border-collapse: collapse; border: none; mso-yfti-tbllook: 1184; mso-padding-alt: 0cm 5.4pt 0cm 5.4pt; mso-border-insideh: none; mso-border-insidev: none;" border="0" cellspacing="0" cellpadding="0"&gt;
&lt;tbody&gt;
&lt;tr style="mso-yfti-irow: 0; mso-yfti-firstrow: yes; mso-yfti-lastrow: yes;"&gt;
&lt;td style="width: 230.25pt; padding: 0cm 5.4pt 0cm 5.4pt;" valign="top" width="307"&gt;
&lt;p class="MsoNormal"&gt;&lt;strong&gt;&lt;span lang="NL" style="mso-bidi-font-size: 11.0pt; mso-ansi-language: NL; mso-no-proof: yes;"&gt;Belgi&#235;/Belgique/Belgien&lt;/span&gt;&lt;/strong&gt;&lt;/p&gt;
&lt;p class="MsoNormal"&gt;&lt;span lang="NL" style="mso-ansi-language: NL;"&gt;Seqirus Netherlands B.V.&lt;/span&gt;&lt;span lang="NL" style="mso-bidi-font-size: 11.0pt; mso-ansi-language: NL;"&gt;Nederland/Netherlands&lt;/span&gt;&lt;/p&gt;
&lt;p class="MsoNormal"&gt;&lt;span lang="NL" style="mso-bidi-font-size: 11.0pt; mso-ansi-language: NL; mso-no-proof: yes;"&gt;Tel: +31 (0) 20 204 6900&lt;/span&gt;&lt;/p&gt;
&lt;p class="MsoNormal"&gt;&lt;span lang="NL" style="mso-bidi-font-size: 11.0pt; mso-ansi-language: NL; mso-no-proof: yes;"&gt;&#160;&lt;/span&gt;&lt;/p&gt;
&lt;p class="MsoNormal"&gt;&lt;strong&gt;&lt;span lang="IT" style="mso-bidi-font-size: 11.0pt; mso-ansi-language: IT; mso-no-proof: yes;"&gt;България&lt;/span&gt;&lt;/strong&gt;&lt;/p&gt;
&lt;p class="MsoNormal"&gt;&lt;span lang="NL" style="mso-ansi-language: NL;"&gt;Seqirus Netherlands B.V. &lt;/span&gt;&lt;span lang="EN-GB" style="mso-bidi-font-size: 11.0pt;"&gt;Нидерландия&lt;/span&gt;&lt;/p&gt;
&lt;p class="MsoNormal"&gt;&lt;span lang="IT" style="mso-bidi-font-size: 11.0pt; mso-ansi-language: IT; mso-no-proof: yes;"&gt;Тел&lt;/span&gt;&lt;span lang="NL" style="mso-bidi-font-size: 11.0pt; mso-ansi-language: NL; mso-no-proof: yes;"&gt;.: +31 (0) 20 204 6900&lt;/span&gt;&lt;/p&gt;
&lt;p class="MsoNormal"&gt;&lt;span lang="NL" style="mso-bidi-font-size: 11.0pt; mso-ansi-language: NL; mso-no-proof: yes;"&gt;&#160;&lt;/span&gt;&lt;/p&gt;
&lt;p class="MsoNormal"&gt;&lt;strong&gt;&lt;span lang="NL" style="mso-bidi-font-size: 11.0pt; mso-ansi-language: NL; mso-no-proof: yes;"&gt;Česk&#225; republika&lt;/span&gt;&lt;/strong&gt;&lt;/p&gt;
&lt;p class="MsoNormal"&gt;&lt;span lang="NL" style="mso-ansi-language: NL;"&gt;Seqirus Netherlands B.V. &lt;/span&gt;&lt;span lang="NL" style="mso-bidi-font-size: 11.0pt; mso-ansi-language: NL;"&gt;Nizozemsko&lt;/span&gt;&lt;/p&gt;
&lt;p class="MsoNormal"&gt;&lt;span lang="DE" style="mso-bidi-font-size: 11.0pt; mso-ansi-language: DE; mso-no-proof: yes;"&gt;Tel: +31 (0) 20 204 6900&lt;/span&gt;&lt;/p&gt;
&lt;p class="MsoNormal"&gt;&lt;span lang="DE" style="mso-bidi-font-size: 11.0pt; mso-ansi-language: DE; mso-no-proof: yes;"&gt;&#160;&lt;/span&gt;&lt;/p&gt;
&lt;p class="MsoNormal"&gt;&lt;strong&gt;&lt;span lang="DE" style="mso-bidi-font-size: 11.0pt; mso-ansi-language: DE; mso-no-proof: yes;"&gt;Danmark&lt;/span&gt;&lt;/strong&gt;&lt;/p&gt;
&lt;p class="MsoNormal"&gt;&lt;span lang="DE" style="mso-ansi-language: DE;"&gt;Seqirus Netherlands B.V. &lt;/span&gt;&lt;span lang="DE" style="mso-bidi-font-size: 11.0pt; mso-ansi-language: DE;"&gt;Holland&lt;/span&gt;&lt;/p&gt;
&lt;p class="MsoNormal"&gt;&lt;span lang="DE" style="mso-bidi-font-size: 11.0pt; mso-ansi-language: DE; mso-no-proof: yes;"&gt;Tlf: +31 (0) 20 204 6900&lt;/span&gt;&lt;/p&gt;
&lt;p class="MsoNormal"&gt;&lt;span lang="DE" style="mso-bidi-font-size: 11.0pt; mso-ansi-language: DE; mso-no-proof: yes;"&gt;&#160;&lt;/span&gt;&lt;/p&gt;
&lt;p class="MsoNormal"&gt;&lt;strong&gt;&lt;span lang="DE" style="mso-bidi-font-size: 11.0pt; mso-ansi-language: DE; mso-no-proof: yes;"&gt;Deutschland&lt;/span&gt;&lt;/strong&gt;&lt;/p&gt;
&lt;p class="MsoNormal"&gt;&lt;span lang="DE" style="mso-ansi-language: DE;"&gt;Seqirus GmbH Marburg&lt;/span&gt;&lt;/p&gt;
&lt;p class="MsoNormal"&gt;&lt;span lang="DE" style="mso-ansi-language: DE;"&gt;Tel: 08003601010&lt;/span&gt;&lt;/p&gt;
&lt;p class="MsoNormal"&gt;&lt;span lang="DE" style="mso-bidi-font-size: 11.0pt; mso-ansi-language: DE; mso-no-proof: yes;"&gt;&#160;&lt;/span&gt;&lt;/p&gt;
&lt;p class="MsoNormal"&gt;&lt;strong&gt;&lt;span lang="DE" style="mso-bidi-font-size: 11.0pt; mso-ansi-language: DE; mso-no-proof: yes;"&gt;Eesti&lt;/span&gt;&lt;/strong&gt;&lt;/p&gt;
&lt;p class="MsoNormal"&gt;&lt;span lang="DE" style="mso-ansi-language: DE;"&gt;Seqirus Netherlands B.V. &lt;/span&gt;&lt;span lang="DE" style="mso-bidi-font-size: 11.0pt; mso-ansi-language: DE;"&gt;Holland&lt;/span&gt;&lt;/p&gt;
&lt;p class="MsoNormal"&gt;&lt;span lang="DE" style="mso-bidi-font-size: 11.0pt; mso-ansi-language: DE; mso-no-proof: yes;"&gt;Tel: +31 (0) 20 204 6900&lt;/span&gt;&lt;/p&gt;
&lt;p class="MsoNormal"&gt;&lt;span lang="DE" style="mso-bidi-font-size: 11.0pt; mso-ansi-language: DE; mso-no-proof: yes;"&gt;&#160;&lt;/span&gt;&lt;/p&gt;
&lt;p class="MsoNormal"&gt;&lt;strong&gt;&lt;span lang="IT" style="mso-bidi-font-size: 11.0pt; mso-ansi-language: IT; mso-no-proof: yes;"&gt;&#917;&#955;&#955;ά&#948;&#945;&lt;/span&gt;&lt;/strong&gt;&lt;/p&gt;
&lt;p class="MsoNormal"&gt;&lt;span lang="DE" style="mso-ansi-language: DE;"&gt;Seqirus Netherlands B.V. &lt;/span&gt;&lt;span lang="EN-GB"&gt;&#927;&#955;&#955;&#945;&#957;&#948;ί&#945;&lt;/span&gt;&lt;/p&gt;
&lt;p class="MsoNormal"&gt;&lt;span lang="IT" style="mso-bidi-font-size: 11.0pt; mso-ansi-language: IT; mso-no-proof: yes;"&gt;&#932;&#951;&#955;&lt;/span&gt;&lt;span lang="ES-TRAD" style="mso-bidi-font-size: 11.0pt; mso-ansi-language: ES-TRAD; mso-no-proof: yes;"&gt;: +31 (0) 20 204 6900&lt;/span&gt;&lt;/p&gt;
&lt;p class="MsoNormal"&gt;&lt;span lang="ES-TRAD" style="mso-bidi-font-size: 11.0pt; mso-ansi-language: ES-TRAD; mso-no-proof: yes;"&gt;&#160;&lt;/span&gt;&lt;/p&gt;
&lt;p class="MsoNormal"&gt;&lt;strong&gt;&lt;span lang="ES-TRAD" style="mso-bidi-font-size: 11.0pt; mso-ansi-language: ES-TRAD; mso-no-proof: yes;"&gt;Espa&#241;a&lt;/span&gt;&lt;/strong&gt;&lt;/p&gt;
&lt;p class="MsoNormal"&gt;&lt;span lang="ES-TRAD" style="mso-ansi-language: ES-TRAD;"&gt;Seqirus Spain, S.L., Barcelona&lt;/span&gt;&lt;/p&gt;
&lt;p class="MsoNormal"&gt;&lt;span lang="EN-GB"&gt;Tel: 937 817 884&lt;/span&gt;&lt;/p&gt;
&lt;p class="MsoNormal"&gt;&lt;span lang="EN-GB" style="mso-bidi-font-size: 11.0pt; mso-no-proof: yes;"&gt;&#160;&lt;/span&gt;&lt;/p&gt;
&lt;p class="MsoNormal"&gt;&lt;strong&gt;&lt;span lang="EN-GB" style="mso-bidi-font-size: 11.0pt; mso-no-proof: yes;"&gt;France&lt;/span&gt;&lt;/strong&gt;&lt;/p&gt;
&lt;p class="MsoNormal" style="line-height: normal; page-break-after: avoid;"&gt;&lt;span lang="EN-GB"&gt;Seqirus Netherlands B.V. &lt;/span&gt;&lt;span lang="EN-GB" style="mso-bidi-font-size: 11.0pt;"&gt;Netherlands&lt;/span&gt;&lt;/p&gt;
&lt;p class="MsoNormal"&gt;&lt;span lang="EN-GB" style="mso-bidi-font-size: 11.0pt; mso-no-proof: yes;"&gt;T&#233;l: +31 (0) 20 204 6900&lt;/span&gt;&lt;/p&gt;
&lt;p class="MsoNormal"&gt;&lt;span lang="EN-GB" style="mso-bidi-font-size: 11.0pt; mso-no-proof: yes;"&gt;&#160;&lt;/span&gt;&lt;/p&gt;
&lt;p class="MsoNormal"&gt;&lt;strong&gt;&lt;span lang="EN-GB" style="mso-bidi-font-size: 11.0pt; mso-no-proof: yes;"&gt;Hrvatska&lt;/span&gt;&lt;/strong&gt;&lt;/p&gt;
&lt;p class="MsoNormal"&gt;&lt;span lang="EN-GB"&gt;Seqirus Netherlands B.V. &lt;/span&gt;&lt;span lang="EN-GB" style="mso-bidi-font-size: 11.0pt;"&gt;Nizozemska&lt;/span&gt;&lt;/p&gt;
&lt;p class="MsoNormal"&gt;&lt;span lang="EN-GB" style="mso-bidi-font-size: 11.0pt; mso-no-proof: yes;"&gt;Tel: +31 (0) 20 204 6900&lt;/span&gt;&lt;/p&gt;
&lt;p class="MsoNormal"&gt;&lt;span lang="EN-GB" style="mso-bidi-font-size: 11.0pt; mso-no-proof: yes;"&gt;&#160;&lt;/span&gt;&lt;/p&gt;
&lt;p class="MsoNormal"&gt;&lt;strong&gt;&lt;span lang="EN-GB" style="mso-bidi-font-size: 11.0pt; mso-no-proof: yes;"&gt;Ireland&lt;/span&gt;&lt;/strong&gt;&lt;/p&gt;
&lt;p class="MsoNormal"&gt;&lt;span lang="EN-GB" style="mso-bidi-font-size: 11.0pt; mso-no-proof: yes;"&gt;Seqirus UK Limited Maidenhead&lt;/span&gt;&lt;/p&gt;
&lt;p class="MsoNormal"&gt;&lt;span lang="EN-GB" style="mso-bidi-font-size: 11.0pt; mso-no-proof: yes;"&gt;Tel: +44 1628 641 500&lt;/span&gt;&lt;/p&gt;
&lt;p class="MsoNormal"&gt;&lt;span lang="EN-GB" style="mso-bidi-font-size: 11.0pt; mso-no-proof: yes;"&gt;&#160;&lt;/span&gt;&lt;/p&gt;
&lt;p class="MsoNormal"&gt;&lt;strong&gt;&lt;span lang="EN-GB" style="mso-bidi-font-size: 11.0pt; mso-no-proof: yes;"&gt;&#205;sland&lt;/span&gt;&lt;/strong&gt;&lt;/p&gt;
&lt;p class="MsoNormal"&gt;&lt;span lang="EN-GB"&gt;Seqirus Netherlands B.V. &lt;/span&gt;&lt;span lang="EN-GB" style="mso-bidi-font-size: 11.0pt; mso-no-proof: yes;"&gt;Holland&lt;/span&gt;&lt;/p&gt;
&lt;p class="MsoNormal"&gt;&lt;span lang="IT" style="mso-bidi-font-size: 11.0pt; mso-ansi-language: IT; mso-no-proof: yes;"&gt;S&#237;mi: +31 (0) 20 204 6900&lt;/span&gt;&lt;/p&gt;
&lt;p class="MsoNormal"&gt;&lt;span lang="IT" style="mso-bidi-font-size: 11.0pt; mso-ansi-language: IT; mso-no-proof: yes;"&gt;&#160;&lt;/span&gt;&lt;/p&gt;
&lt;p class="MsoNormal"&gt;&lt;strong&gt;&lt;span lang="IT" style="mso-bidi-font-size: 11.0pt; mso-ansi-language: IT; mso-no-proof: yes;"&gt;Italia&lt;/span&gt;&lt;/strong&gt;&lt;/p&gt;
&lt;p class="MsoNormal"&gt;&lt;span lang="IT" style="mso-bidi-font-size: 11.0pt; mso-ansi-language: IT; mso-no-proof: yes;"&gt;Seqirus S.r.l. Siena&lt;/span&gt;&lt;/p&gt;
&lt;p class="MsoNormal"&gt;&lt;span lang="IT" style="mso-bidi-font-size: 11.0pt; mso-ansi-language: IT; mso-no-proof: yes;"&gt;Tel: +39 0577 096400&lt;/span&gt;&lt;/p&gt;
&lt;p class="MsoNormal"&gt;&lt;span lang="IT" style="mso-bidi-font-size: 11.0pt; mso-ansi-language: IT; mso-no-proof: yes;"&gt;&#160;&lt;/span&gt;&lt;/p&gt;
&lt;p class="MsoNormal"&gt;&lt;strong&gt;&lt;span lang="IT" style="mso-bidi-font-size: 11.0pt; mso-ansi-language: IT; mso-no-proof: yes;"&gt;&#922;ύ&#960;&#961;&#959;&#962;&lt;/span&gt;&lt;/strong&gt;&lt;/p&gt;
&lt;p class="MsoNormal"&gt;&lt;span lang="IT" style="mso-ansi-language: IT;"&gt;Seqirus Netherlands B.V. &lt;/span&gt;&lt;span lang="EN-GB"&gt;&#927;&#955;&#955;&#945;&#957;&#948;ί&#945;&lt;/span&gt;&lt;/p&gt;
&lt;p class="MsoNormal"&gt;&lt;span lang="IT" style="mso-bidi-font-size: 11.0pt; mso-ansi-language: IT; mso-no-proof: yes;"&gt;&#932;&#951;&#955;: +31 (0) 20 204 6900&lt;/span&gt;&lt;/p&gt;
&lt;p class="MsoNormal"&gt;&lt;span lang="IT" style="mso-bidi-font-size: 11.0pt; mso-ansi-language: IT; mso-no-proof: yes;"&gt;&#160;&lt;/span&gt;&lt;/p&gt;
&lt;p class="MsoNormal"&gt;&lt;strong&gt;&lt;span lang="IT" style="mso-bidi-font-size: 11.0pt; mso-ansi-language: IT; mso-no-proof: yes;"&gt;Latvija&lt;/span&gt;&lt;/strong&gt;&lt;/p&gt;
&lt;p class="MsoNormal"&gt;&lt;span lang="IT" style="mso-ansi-language: IT;"&gt;Seqirus Netherlands B.V. &lt;/span&gt;&lt;span lang="IT" style="mso-bidi-font-size: 11.0pt; mso-ansi-language: IT;"&gt;Nīderlande&lt;/span&gt;&lt;/p&gt;
&lt;p class="MsoNormal"&gt;&lt;span lang="EN-GB" style="mso-bidi-font-size: 11.0pt; mso-no-proof: yes;"&gt;Tel: +31 (0) 20 204 6900&lt;/span&gt;&lt;/p&gt;
&lt;p class="MsoNormal"&gt;&lt;span lang="EN-GB" style="mso-bidi-font-size: 11.0pt; mso-no-proof: yes;"&gt;&#160;&lt;/span&gt;&lt;/p&gt;
&lt;/td&gt;
&lt;td style="width: 230.3pt; padding: 0cm 5.4pt 0cm 5.4pt;" valign="top" width="307"&gt;
&lt;p class="MsoNormal"&gt;&lt;strong&gt;&lt;span lang="IT" style="mso-bidi-font-size: 11.0pt; mso-ansi-language: IT; mso-no-proof: yes;"&gt;Lietuva&lt;/span&gt;&lt;/strong&gt;&lt;/p&gt;
&lt;p class="MsoNormal"&gt;&lt;span lang="IT" style="mso-ansi-language: IT;"&gt;Seqirus Netherlands B.V. &lt;/span&gt;&lt;span lang="IT" style="mso-bidi-font-size: 11.0pt; mso-ansi-language: IT;"&gt;Nyderlandai&lt;/span&gt;&lt;/p&gt;
&lt;p class="MsoNormal"&gt;&lt;span lang="DE" style="mso-bidi-font-size: 11.0pt; mso-ansi-language: DE; mso-no-proof: yes;"&gt;Tel: +31 (0) 20 204 6900&lt;/span&gt;&lt;/p&gt;
&lt;p class="MsoNormal"&gt;&lt;span lang="DE" style="mso-bidi-font-size: 11.0pt; mso-ansi-language: DE; mso-no-proof: yes;"&gt;&#160;&lt;/span&gt;&lt;/p&gt;
&lt;p class="MsoNormal"&gt;&lt;strong&gt;&lt;span lang="DE" style="mso-bidi-font-size: 11.0pt; mso-ansi-language: DE; mso-no-proof: yes;"&gt;Luxembourg/Luxemburg&lt;/span&gt;&lt;/strong&gt;&lt;/p&gt;
&lt;p class="MsoNormal"&gt;&lt;span lang="DE" style="mso-ansi-language: DE;"&gt;Seqirus Netherlands B.V. &lt;/span&gt;&lt;span lang="DE" style="mso-bidi-font-size: 11.0pt; mso-ansi-language: DE;"&gt;Netherlands&lt;/span&gt;&lt;/p&gt;
&lt;p class="MsoNormal"&gt;&lt;span lang="DE" style="mso-bidi-font-size: 11.0pt; mso-ansi-language: DE; mso-no-proof: yes;"&gt;T&#233;l/Tel: +31 (0) 20 204 6900&lt;/span&gt;&lt;/p&gt;
&lt;p class="MsoNormal"&gt;&lt;span lang="DE" style="mso-bidi-font-size: 11.0pt; mso-ansi-language: DE; mso-no-proof: yes;"&gt;&#160;&lt;/span&gt;&lt;/p&gt;
&lt;p class="MsoNormal"&gt;&lt;strong&gt;&lt;span lang="DE" style="mso-bidi-font-size: 11.0pt; mso-ansi-language: DE; mso-no-proof: yes;"&gt;Magyarorsz&#225;g&lt;/span&gt;&lt;/strong&gt;&lt;/p&gt;
&lt;p class="MsoNormal"&gt;&lt;span lang="DE" style="mso-ansi-language: DE;"&gt;Seqirus Netherlands B.V. &lt;/span&gt;&lt;span lang="DE" style="mso-bidi-font-size: 11.0pt; mso-ansi-language: DE;"&gt;Hollandia&lt;/span&gt;&lt;/p&gt;
&lt;p class="MsoNormal"&gt;&lt;span lang="DE" style="mso-bidi-font-size: 11.0pt; mso-ansi-language: DE; mso-no-proof: yes;"&gt;Tel.: +31 (0) 20 204 6900&lt;/span&gt;&lt;/p&gt;
&lt;p class="MsoNormal"&gt;&lt;span lang="DE" style="mso-bidi-font-size: 11.0pt; mso-ansi-language: DE; mso-no-proof: yes;"&gt;&#160;&lt;/span&gt;&lt;/p&gt;
&lt;p class="MsoNormal"&gt;&lt;strong&gt;&lt;span lang="DE" style="mso-bidi-font-size: 11.0pt; mso-ansi-language: DE; mso-no-proof: yes;"&gt;Malta&lt;/span&gt;&lt;/strong&gt;&lt;/p&gt;
&lt;p class="MsoNormal"&gt;&lt;span lang="DE" style="mso-ansi-language: DE;"&gt;Seqirus Netherlands B.V. &lt;/span&gt;&lt;span lang="DE" style="mso-bidi-font-size: 11.0pt; mso-ansi-language: DE;"&gt;In-Netherlands&lt;/span&gt;&lt;/p&gt;
&lt;p class="MsoNormal"&gt;&lt;span lang="DE" style="mso-bidi-font-size: 11.0pt; mso-ansi-language: DE; mso-no-proof: yes;"&gt;Tel: +31 (0) 20 204 6900&lt;/span&gt;&lt;/p&gt;
&lt;p class="MsoNormal"&gt;&lt;span lang="DE" style="mso-bidi-font-size: 11.0pt; mso-ansi-language: DE; mso-no-proof: yes;"&gt;&#160;&lt;/span&gt;&lt;/p&gt;
&lt;p class="MsoNormal"&gt;&lt;strong&gt;&lt;span lang="DE" style="mso-bidi-font-size: 11.0pt; mso-ansi-language: DE; mso-no-proof: yes;"&gt;Nederland&lt;/span&gt;&lt;/strong&gt;&lt;/p&gt;
&lt;p class="MsoNormal"&gt;&lt;span lang="DE" style="mso-ansi-language: DE;"&gt;Seqirus Netherlands B.V. Amsterdam&lt;/span&gt;&lt;/p&gt;
&lt;p class="MsoNormal"&gt;&lt;span lang="DE" style="mso-bidi-font-size: 11.0pt; mso-ansi-language: DE; mso-no-proof: yes;"&gt;Tel: +31 (0) 20 204 6900&lt;/span&gt;&lt;/p&gt;
&lt;p class="MsoNormal"&gt;&lt;span lang="DE" style="mso-bidi-font-size: 11.0pt; mso-ansi-language: DE; mso-no-proof: yes;"&gt;&#160;&lt;/span&gt;&lt;/p&gt;
&lt;p class="MsoNormal"&gt;&lt;strong&gt;&lt;span lang="DE" style="mso-bidi-font-size: 11.0pt; mso-ansi-language: DE; mso-no-proof: yes;"&gt;Norge&lt;/span&gt;&lt;/strong&gt;&lt;/p&gt;
&lt;p class="MsoNormal"&gt;&lt;span lang="DE" style="mso-ansi-language: DE;"&gt;Seqirus Netherlands B.V. &lt;/span&gt;&lt;span lang="DE" style="mso-bidi-font-size: 11.0pt; mso-ansi-language: DE;"&gt;Nederland&lt;/span&gt;&lt;/p&gt;
&lt;p class="MsoNormal"&gt;&lt;span lang="DE" style="mso-bidi-font-size: 11.0pt; mso-ansi-language: DE; mso-no-proof: yes;"&gt;Tlf: +31 (0) 20 204 6900&lt;/span&gt;&lt;/p&gt;
&lt;p class="MsoNormal"&gt;&lt;span lang="DE" style="mso-bidi-font-size: 11.0pt; mso-ansi-language: DE; mso-no-proof: yes;"&gt;&#160;&lt;/span&gt;&lt;/p&gt;
&lt;p class="MsoNormal"&gt;&lt;strong&gt;&lt;span lang="DE" style="mso-bidi-font-size: 11.0pt; mso-ansi-language: DE; mso-no-proof: yes;"&gt;&#214;sterreich&lt;/span&gt;&lt;/strong&gt;&lt;/p&gt;
&lt;p class="MsoNormal"&gt;&lt;span lang="DE" style="mso-ansi-language: DE;"&gt;Valneva Austria GmbH, Wien&lt;/span&gt;&lt;/p&gt;
&lt;p class="MsoNormal"&gt;&lt;span lang="DE" style="mso-ansi-language: DE;"&gt;Tel: +43 1 20620 &lt;/span&gt;&lt;/p&gt;
&lt;p class="MsoNormal"&gt;&lt;span lang="DE" style="color: #1f497d; mso-ansi-language: DE;"&gt;&#160;&lt;/span&gt;&lt;/p&gt;
&lt;p class="MsoNormal"&gt;&lt;strong&gt;&lt;span lang="DE" style="mso-bidi-font-size: 11.0pt; mso-ansi-language: DE; mso-no-proof: yes;"&gt;Polska&lt;/span&gt;&lt;/strong&gt;&lt;/p&gt;
&lt;p class="MsoNormal"&gt;&lt;span lang="PT" style="mso-ansi-language: PT;"&gt;Seqirus Netherlands B.V. &lt;/span&gt;&lt;span lang="PT" style="mso-bidi-font-size: 11.0pt; mso-ansi-language: PT;"&gt;Holandia&lt;/span&gt;&lt;/p&gt;
&lt;p class="MsoNormal"&gt;&lt;span lang="PT" style="mso-bidi-font-size: 11.0pt; mso-ansi-language: PT; mso-no-proof: yes;"&gt;Tel.: +31 (0) 20 204 6900&lt;/span&gt;&lt;/p&gt;
&lt;p class="MsoNormal"&gt;&lt;span lang="PT" style="mso-bidi-font-size: 11.0pt; mso-ansi-language: PT; mso-no-proof: yes;"&gt;&#160;&lt;/span&gt;&lt;/p&gt;
&lt;p class="MsoNormal"&gt;&lt;strong&gt;&lt;span lang="PT" style="mso-bidi-font-size: 11.0pt; mso-ansi-language: PT; mso-no-proof: yes;"&gt;Portugal&lt;/span&gt;&lt;/strong&gt;&lt;/p&gt;
&lt;p class="MsoNormal"&gt;&lt;span lang="PT" style="mso-ansi-language: PT;"&gt;Seqirus Netherlands B.V. &lt;/span&gt;&lt;span lang="PT" style="mso-bidi-font-size: 11.0pt; mso-ansi-language: PT;"&gt;Pa&#237;ses Baixos&lt;/span&gt;&lt;/p&gt;
&lt;p class="MsoNormal"&gt;&lt;span lang="PT" style="mso-bidi-font-size: 11.0pt; mso-ansi-language: PT; mso-no-proof: yes;"&gt;Tel: +31 (0) 20 204 6900&lt;/span&gt;&lt;/p&gt;
&lt;p class="MsoNormal"&gt;&lt;span lang="PT" style="mso-bidi-font-size: 11.0pt; mso-ansi-language: PT; mso-no-proof: yes;"&gt;&#160;&lt;/span&gt;&lt;/p&gt;
&lt;p class="MsoNormal"&gt;&lt;strong&gt;&lt;span lang="PT" style="mso-bidi-font-size: 11.0pt; mso-ansi-language: PT; mso-no-proof: yes;"&gt;Rom&#226;nia&lt;/span&gt;&lt;/strong&gt;&lt;/p&gt;
&lt;p class="MsoNormal"&gt;&lt;span lang="PT" style="mso-ansi-language: PT;"&gt;Seqirus Netherlands B.V. &lt;/span&gt;&lt;span lang="PT" style="mso-bidi-font-size: 11.0pt; mso-ansi-language: PT;"&gt;Olanda&lt;/span&gt;&lt;/p&gt;
&lt;p class="MsoNormal"&gt;&lt;span lang="PT" style="mso-bidi-font-size: 11.0pt; mso-ansi-language: PT; mso-no-proof: yes;"&gt;Tel: +31 (0) 20 204 6900&lt;/span&gt;&lt;/p&gt;
&lt;p class="MsoNormal"&gt;&lt;span lang="PT" style="mso-bidi-font-size: 11.0pt; mso-ansi-language: PT; mso-no-proof: yes;"&gt;&#160;&lt;/span&gt;&lt;/p&gt;
&lt;p class="MsoNormal"&gt;&lt;strong&gt;&lt;span lang="PT" style="mso-bidi-font-size: 11.0pt; mso-ansi-language: PT; mso-no-proof: yes;"&gt;Slovenija&lt;/span&gt;&lt;/strong&gt;&lt;/p&gt;
&lt;p class="MsoNormal"&gt;&lt;span lang="PT" style="mso-ansi-language: PT;"&gt;Seqirus Netherlands B.V. &lt;/span&gt;&lt;span lang="PT" style="mso-bidi-font-size: 11.0pt; mso-ansi-language: PT;"&gt;Nizozemska&lt;/span&gt;&lt;/p&gt;
&lt;p class="MsoNormal"&gt;&lt;span lang="PT" style="mso-bidi-font-size: 11.0pt; mso-ansi-language: PT; mso-no-proof: yes;"&gt;Tel: +31 (0) 20 204 6900&lt;/span&gt;&lt;/p&gt;
&lt;p class="MsoNormal"&gt;&lt;span lang="PT" style="mso-bidi-font-size: 11.0pt; mso-ansi-language: PT; mso-no-proof: yes;"&gt;&#160;&lt;/span&gt;&lt;/p&gt;
&lt;p class="MsoNormal"&gt;&lt;strong&gt;&lt;span lang="PT" style="mso-bidi-font-size: 11.0pt; mso-ansi-language: PT; mso-no-proof: yes;"&gt;Slovensk&#225; republika&lt;/span&gt;&lt;/strong&gt;&lt;/p&gt;
&lt;p class="MsoNormal"&gt;&lt;span lang="PT" style="mso-ansi-language: PT;"&gt;Seqirus Netherlands B.V. &lt;/span&gt;&lt;span lang="SK" style="mso-ansi-language: SK;"&gt;Holandsko&lt;/span&gt;&lt;/p&gt;
&lt;p class="MsoNormal"&gt;&lt;span lang="PT" style="mso-bidi-font-size: 11.0pt; mso-ansi-language: PT; mso-no-proof: yes;"&gt;Tel: +31 (0) 20 204 6900&lt;/span&gt;&lt;/p&gt;
&lt;p class="MsoNormal"&gt;&lt;span lang="PT" style="mso-bidi-font-size: 11.0pt; mso-ansi-language: PT; mso-no-proof: yes;"&gt;&#160;&lt;/span&gt;&lt;/p&gt;
&lt;p class="MsoNormal"&gt;&lt;strong&gt;&lt;span lang="PT" style="mso-bidi-font-size: 11.0pt; mso-ansi-language: PT; mso-no-proof: yes;"&gt;Suomi/Finland&lt;/span&gt;&lt;/strong&gt;&lt;/p&gt;
&lt;p class="MsoNormal"&gt;&lt;span lang="PT" style="mso-ansi-language: PT;"&gt;Seqirus Netherlands B.V. &lt;/span&gt;&lt;span lang="PT" style="mso-bidi-font-size: 11.0pt; mso-ansi-language: PT;"&gt;Alankomaat&lt;/span&gt;&lt;/p&gt;
&lt;p class="MsoNormal"&gt;&lt;span lang="SV" style="mso-bidi-font-size: 11.0pt; mso-ansi-language: SV; mso-no-proof: yes;"&gt;Puh/Tel: +31 (0) 20 204 6900&lt;/span&gt;&lt;/p&gt;
&lt;p class="MsoNormal"&gt;&lt;span lang="SV" style="mso-bidi-font-size: 11.0pt; mso-ansi-language: SV; mso-no-proof: yes;"&gt;&#160;&lt;/span&gt;&lt;/p&gt;
&lt;p class="MsoNormal"&gt;&lt;strong&gt;&lt;span lang="SV" style="mso-bidi-font-size: 11.0pt; mso-ansi-language: SV; mso-no-proof: yes;"&gt;Sverige&lt;/span&gt;&lt;/strong&gt;&lt;/p&gt;
&lt;p class="MsoNormal"&gt;&lt;span lang="SV" style="mso-ansi-language: SV;"&gt;Seqirus Netherlands B.V. &lt;/span&gt;&lt;span lang="SV" style="mso-bidi-font-size: 11.0pt; mso-ansi-language: SV;"&gt;Nederl&#228;nderna&lt;/span&gt;&lt;/p&gt;
&lt;p class="MsoNormal"&gt;&lt;span lang="EN-GB" style="mso-bidi-font-size: 11.0pt; mso-no-proof: yes;"&gt;Tel: +31 (0) 20 204 6900&lt;/span&gt;&lt;/p&gt;
&lt;p class="MsoNormal"&gt;&lt;span lang="EN-GB" style="mso-bidi-font-size: 11.0pt; mso-no-proof: yes;"&gt;&#160;&lt;/span&gt;&lt;/p&gt;
&lt;p class="MsoNormal"&gt;&lt;span lang="EN-GB" style="mso-bidi-font-size: 11.0pt; mso-no-proof: yes;"&gt;&#160;&lt;/span&gt;&lt;/p&gt;
&lt;p class="MsoNormal"&gt;&lt;span lang="EN-GB" style="mso-bidi-font-size: 11.0pt; mso-no-proof: yes;"&gt;&#160;&lt;/span&gt;&lt;/p&gt;
&lt;/td&gt;
&lt;/tr&gt;
&lt;/tbody&gt;
&lt;/table&gt;</div>
                    </text>
                  </section>
                  <section id="d486c5c0-25e0-ed11-a7c7-000d3aaa0c5f">
                    <title value="This leaflet was last revised on 07/2022" />
                    <code>
                      <coding>
                        <system value="https://spor.ema.europa.eu/rmswi/#/lists/200000029659/terms/200000029919" />
                        <code value="200000029919" />
                        <display value="This leaflet was last revised in &lt;{MM/YYYY}&gt;&lt;{month YYYY}&gt;." />
                      </coding>
                    </code>
                    <text>
                      <status value="generated" />
                      <div xmlns="http://www.w3.org/1999/xhtml" />
                    </text>
                  </section>
                  <section id="de86c5c0-25e0-ed11-a7c7-000d3aaa0c5f">
                    <title value="Other sources of information" />
                    <code>
                      <coding>
                        <system value="https://spor.ema.europa.eu/rmswi/#/lists/200000029659/terms/200000029920" />
                        <code value="200000029920" />
                        <display value="Other sources of information" />
                      </coding>
                    </code>
                    <text>
                      <status value="generated" />
                      <div xmlns="http://www.w3.org/1999/xhtml">&lt;p class="MsoNormal" style="margin-right: -.1pt; line-height: normal; mso-list: skip;"&gt;&lt;span lang="EN-GB" style="mso-bidi-font-size: 11.0pt;"&gt;Detailed information on this medicine is available on the European Medicines Agency web site: &lt;/span&gt;&lt;span lang="EN-GB"&gt;&lt;span style="mso-field-code: ' HYPERLINK ';"&gt;&lt;span class="MsoHyperlink"&gt;&lt;span style="mso-bidi-font-size: 11.0pt; mso-no-proof: yes;"&gt;http://www.ema.europa.eu&lt;/span&gt;&lt;/span&gt;&lt;/span&gt;&lt;/span&gt;&lt;span lang="EN-GB" style="mso-bidi-font-size: 11.0pt; mso-no-proof: yes;"&gt;. &lt;/span&gt;&lt;/p&gt;
&lt;p class="MsoNormal" style="margin-right: -.1pt; line-height: normal; mso-list: skip;"&gt;&lt;span lang="EN-GB" style="mso-bidi-font-size: 11.0pt; mso-no-proof: yes;"&gt;&#160;&lt;/span&gt;&lt;/p&gt;
&lt;p class="MsoNormal" style="margin-right: -.1pt; line-height: normal; mso-list: skip;"&gt;&lt;span lang="EN-GB" style="mso-bidi-font-size: 11.0pt; mso-no-proof: yes;"&gt;---------------------------------------------------------------------------------------------------------------------------&lt;/span&gt;&lt;/p&gt;
&lt;p class="MsoNormal" style="margin-right: -.1pt; line-height: normal; mso-list: skip;"&gt;&lt;span lang="EN-GB" style="mso-bidi-font-size: 11.0pt; mso-no-proof: yes;"&gt;The following information is intended for healthcare professionals only:&lt;/span&gt;&lt;/p&gt;
&lt;p class="MsoNormal" style="margin-right: -.1pt; line-height: normal; mso-list: skip;"&gt;&lt;span lang="EN-GB" style="mso-bidi-font-size: 11.0pt; mso-no-proof: yes;"&gt;&#160;&lt;/span&gt;&lt;/p&gt;
&lt;p class="MsoNormal" style="margin-right: -.1pt; line-height: normal; mso-list: skip;"&gt;&lt;span lang="EN-GB" style="mso-bidi-font-size: 11.0pt; mso-no-proof: yes;"&gt;Appropriate medical treatment and supervision should always be readily available in case of a rare anaphylactic event following the administration of the vaccine.&lt;/span&gt;&lt;/p&gt;
&lt;p class="MsoNormal" style="margin-right: -.1pt; line-height: normal; mso-list: skip;"&gt;&lt;span lang="EN-GB" style="mso-bidi-font-size: 11.0pt; mso-no-proof: yes;"&gt;&#160;&lt;/span&gt;&lt;/p&gt;
&lt;p class="MsoNormal" style="margin-right: -.1pt; line-height: normal; mso-list: skip;"&gt;&lt;span lang="EN-GB" style="mso-bidi-font-size: 11.0pt; mso-no-proof: yes;"&gt;Shake before use. After shaking, the normal appearance of the vaccine is a clear to slightly opalescent suspension.&lt;/span&gt;&lt;/p&gt;
&lt;p class="MsoNormal" style="margin-right: -.1pt; line-height: normal; mso-list: skip;"&gt;&lt;span lang="EN-GB" style="mso-bidi-font-size: 11.0pt; mso-no-proof: yes;"&gt;&#160;&lt;/span&gt;&lt;/p&gt;
&lt;p class="MsoNormal" style="margin-right: -.1pt; line-height: normal; mso-list: skip;"&gt;&lt;span lang="EN-GB" style="mso-bidi-font-size: 11.0pt; mso-no-proof: yes;"&gt;The vaccine should be visually inspected for particulate matter and discoloration prior to administration. In the event of any foreign particulate matter and/or variation of physical aspect being observed, do not administer the vaccine.&lt;/span&gt;&lt;/p&gt;</div>
                    </text>
                  </section>
                </section>
              </section>
            </Composition>
          </resource>
        </entry>
      </Bundle>
    </resource>
  </entry>
  <entry>
    <fullUrl value="urn:uuid:ec86c5c0-25e0-ed11-a7c7-000d3aaa0c5f" />
    <resource>
      <Bundle>
        <id value="ec86c5c0-25e0-ed11-a7c7-000d3aaa0c5f" />
        <meta>
          <versionId value="1" />
          <lastUpdated value="2023-04-21T12:41:28.269+00:00" />
        </meta>
        <identifier>
          <system value="http://ema.europa.eu/fhir" />
          <value value="ec86c5c0-25e0-ed11-a7c7-000d3aaa0c5f" />
        </identifier>
        <type value="document" />
        <timestamp value="2023-04-21T12:41:28.269+00:00" />
        <entry>
          <fullUrl value="urn:uuid:ec86c5c0-25e0-ed11-a7c7-000d3aaa0c5f" />
          <resource>
            <Composition>
              <id value="ec86c5c0-25e0-ed11-a7c7-000d3aaa0c5f" />
              <language value="en" />
              <status value="final" />
              <type>
                <coding>
                  <system value="https://spor.ema.europa.eu/rmswi/#/lists/100000155531/terms/100000155535" />
                  <code value="100000155535" />
                  <display value="Labelling" />
                </coding>
              </type>
              <date value="2023-04-21" />
              <author>
                <identifier>
                  <value value="systemuser" />
                </identifier>
              </author>
              <title value="Labelling" />
              <section id="0087c5c0-25e0-ed11-a7c7-000d3aaa0c5f">
                <title value="LABELLING" />
                <code>
                  <coding>
                    <system value="https://spor.ema.europa.eu/rmswi/#/lists/200000029659/terms/200000029861" />
                    <code value="200000029861" />
                    <display value="LABELLING" />
                  </coding>
                </code>
                <text>
                  <status value="generated" />
                  <div xmlns="http://www.w3.org/1999/xhtml" />
                </text>
                <section id="0887c5c0-25e0-ed11-a7c7-000d3aaa0c5f">
                  <title value="PARTICULARS TO APPEAR ON &#60;THE OUTER PACKAGING&#62; &#60;AND&#62; &#60;THE IMMEDIATE PACKAGING&#62; {NATURE/TYPE}" />
                  <code>
                    <coding>
                      <system value="https://spor.ema.europa.eu/rmswi/#/lists/200000029659/terms/200000029862" />
                      <code value="200000029862" />
                      <display value="PARTICULARS TO APPEAR ON &lt;THE OUTER PACKAGING&gt; &lt;AND&gt; &lt;THE IMMEDIATE PACKAGING&gt; {NATURE/TYPE}" />
                    </coding>
                  </code>
                  <text>
                    <status value="generated" />
                    <div xmlns="http://www.w3.org/1999/xhtml" />
                  </text>
                  <section id="1287c5c0-25e0-ed11-a7c7-000d3aaa0c5f">
                    <title value="1. NAME OF THE MEDICINAL PRODUCT" />
                    <code>
                      <coding>
                        <system value="https://spor.ema.europa.eu/rmswi/#/lists/200000029659/terms/200000029863" />
                        <code value="200000029863" />
                        <display value="1. NAME OF THE MEDICINAL PRODUCT" />
                      </coding>
                    </code>
                    <text>
                      <status value="generated" />
                      <div xmlns="http://www.w3.org/1999/xhtml" />
                    </text>
                  </section>
                  <section id="1987c5c0-25e0-ed11-a7c7-000d3aaa0c5f">
                    <title value="2. STATEMENT OF ACTIVE SUBSTANCE(S)" />
                    <code>
                      <coding>
                        <system value="https://spor.ema.europa.eu/rmswi/#/lists/200000029659/terms/200000029864" />
                        <code value="200000029864" />
                        <display value="2. STATEMENT OF ACTIVE SUBSTANCE(S)" />
                      </coding>
                    </code>
                    <text>
                      <status value="generated" />
                      <div xmlns="http://www.w3.org/1999/xhtml" />
                    </text>
                  </section>
                  <section id="3087c5c0-25e0-ed11-a7c7-000d3aaa0c5f">
                    <title value="3. LIST OF EXCIPIENTS" />
                    <code>
                      <coding>
                        <system value="https://spor.ema.europa.eu/rmswi/#/lists/200000029659/terms/200000029865" />
                        <code value="200000029865" />
                        <display value="3. LIST OF EXCIPIENTS" />
                      </coding>
                    </code>
                    <text>
                      <status value="generated" />
                      <div xmlns="http://www.w3.org/1999/xhtml" />
                    </text>
                  </section>
                  <section id="3c87c5c0-25e0-ed11-a7c7-000d3aaa0c5f">
                    <title value="4. PHARMACEUTICAL FORM AND CONTENTS" />
                    <code>
                      <coding>
                        <system value="https://spor.ema.europa.eu/rmswi/#/lists/200000029659/terms/200000029866" />
                        <code value="200000029866" />
                        <display value="4. PHARMACEUTICAL FORM AND CONTENTS" />
                      </coding>
                    </code>
                    <text>
                      <status value="generated" />
                      <div xmlns="http://www.w3.org/1999/xhtml" />
                    </text>
                  </section>
                  <section id="4787c5c0-25e0-ed11-a7c7-000d3aaa0c5f">
                    <title value="5. METHOD AND ROUTE(S) OF ADMINISTRATION" />
                    <code>
                      <coding>
                        <system value="https://spor.ema.europa.eu/rmswi/#/lists/200000029659/terms/200000029867" />
                        <code value="200000029867" />
                        <display value="5. METHOD AND ROUTE(S) OF ADMINISTRATION" />
                      </coding>
                    </code>
                    <text>
                      <status value="generated" />
                      <div xmlns="http://www.w3.org/1999/xhtml" />
                    </text>
                  </section>
                  <section id="4e87c5c0-25e0-ed11-a7c7-000d3aaa0c5f">
                    <title value="6. SPECIAL WARNING THAT THE MEDICINAL PRODUCT MUST BE STORED OUT OF THE SIGHT AND REACH OF CHILDREN" />
                    <code>
                      <coding>
                        <system value="https://spor.ema.europa.eu/rmswi/#/lists/200000029659/terms/200000029868" />
                        <code value="200000029868" />
                        <display value="6. SPECIAL WARNING THAT THE MEDICINAL PRODUCT MUST BE STORED OUT OF THE SIGHT AND REACH OF CHILDREN" />
                      </coding>
                    </code>
                    <text>
                      <status value="generated" />
                      <div xmlns="http://www.w3.org/1999/xhtml" />
                    </text>
                  </section>
                  <section id="5987c5c0-25e0-ed11-a7c7-000d3aaa0c5f">
                    <title value="7. OTHER SPECIAL WARNING(S), IF NECESSARY" />
                    <code>
                      <coding>
                        <system value="https://spor.ema.europa.eu/rmswi/#/lists/200000029659/terms/200000029869" />
                        <code value="200000029869" />
                        <display value="7. OTHER SPECIAL WARNING(S), IF NECESSARY" />
                      </coding>
                    </code>
                    <text>
                      <status value="generated" />
                      <div xmlns="http://www.w3.org/1999/xhtml" />
                    </text>
                  </section>
                  <section id="6787c5c0-25e0-ed11-a7c7-000d3aaa0c5f">
                    <title value="8. EXPIRY DATE" />
                    <code>
                      <coding>
                        <system value="https://spor.ema.europa.eu/rmswi/#/lists/200000029659/terms/200000029870" />
                        <code value="200000029870" />
                        <display value="8. EXPIRY DATE" />
                      </coding>
                    </code>
                    <text>
                      <status value="generated" />
                      <div xmlns="http://www.w3.org/1999/xhtml" />
                    </text>
                  </section>
                  <section id="6f87c5c0-25e0-ed11-a7c7-000d3aaa0c5f">
                    <title value="9. SPECIAL STORAGE CONDITIONS" />
                    <code>
                      <coding>
                        <system value="https://spor.ema.europa.eu/rmswi/#/lists/200000029659/terms/200000029871" />
                        <code value="200000029871" />
                        <display value="9. SPECIAL STORAGE CONDITIONS" />
                      </coding>
                    </code>
                    <text>
                      <status value="generated" />
                      <div xmlns="http://www.w3.org/1999/xhtml" />
                    </text>
                  </section>
                  <section id="7887c5c0-25e0-ed11-a7c7-000d3aaa0c5f">
                    <title value="10. SPECIAL PRECAUTIONS FOR DISPOSAL OF UNUSED MEDICINAL PRODUCTS OR WASTE MATERIALS DERIVED FROM SUCH MEDICINAL PRODUCTS, IF APPROPRIATE" />
                    <code>
                      <coding>
                        <system value="https://spor.ema.europa.eu/rmswi/#/lists/200000029659/terms/200000029872" />
                        <code value="200000029872" />
                        <display value="10. SPECIAL PRECAUTIONS FOR DISPOSAL OF UNUSED MEDICINAL PRODUCTS OR WASTE MATERIALS DERIVED FROM SUCH MEDICINAL PRODUCTS, IF APPROPRIATE" />
                      </coding>
                    </code>
                    <text>
                      <status value="generated" />
                      <div xmlns="http://www.w3.org/1999/xhtml" />
                    </text>
                  </section>
                  <section id="8487c5c0-25e0-ed11-a7c7-000d3aaa0c5f">
                    <title value="11. NAME AND ADDRESS OF THE MARKETING AUTHORISATION HOLDER" />
                    <code>
                      <coding>
                        <system value="https://spor.ema.europa.eu/rmswi/#/lists/200000029659/terms/200000029873" />
                        <code value="200000029873" />
                        <display value="11. NAME AND ADDRESS OF THE MARKETING AUTHORISATION HOLDER" />
                      </coding>
                    </code>
                    <text>
                      <status value="generated" />
                      <div xmlns="http://www.w3.org/1999/xhtml" />
                    </text>
                  </section>
                  <section id="8887c5c0-25e0-ed11-a7c7-000d3aaa0c5f">
                    <title value="12. MARKETING AUTHORISATION NUMBER(S)" />
                    <code>
                      <coding>
                        <system value="https://spor.ema.europa.eu/rmswi/#/lists/200000029659/terms/200000029874" />
                        <code value="200000029874" />
                        <display value="12. MARKETING AUTHORISATION NUMBER(S)" />
                      </coding>
                    </code>
                    <text>
                      <status value="generated" />
                      <div xmlns="http://www.w3.org/1999/xhtml" />
                    </text>
                  </section>
                  <section id="9a87c5c0-25e0-ed11-a7c7-000d3aaa0c5f">
                    <title value="13. BATCH NUMBER&#60;, DONATION AND PRODUCT CODES&#62;" />
                    <code>
                      <coding>
                        <system value="https://spor.ema.europa.eu/rmswi/#/lists/200000029659/terms/200000029875" />
                        <code value="200000029875" />
                        <display value="13. BATCH NUMBER&lt;, DONATION AND PRODUCT CODES&gt;" />
                      </coding>
                    </code>
                    <text>
                      <status value="generated" />
                      <div xmlns="http://www.w3.org/1999/xhtml" />
                    </text>
                  </section>
                  <section id="a22dc0c6-25e0-ed11-a7c7-000d3aaa0c5f">
                    <title value="14. GENERAL CLASSIFICATION FOR SUPPLY" />
                    <code>
                      <coding>
                        <system value="https://spor.ema.europa.eu/rmswi/#/lists/200000029659/terms/200000029876" />
                        <code value="200000029876" />
                        <display value="14. GENERAL CLASSIFICATION FOR SUPPLY" />
                      </coding>
                    </code>
                    <text>
                      <status value="generated" />
                      <div xmlns="http://www.w3.org/1999/xhtml" />
                    </text>
                  </section>
                  <section id="ac2dc0c6-25e0-ed11-a7c7-000d3aaa0c5f">
                    <title value="15. INSTRUCTIONS ON USE" />
                    <code>
                      <coding>
                        <system value="https://spor.ema.europa.eu/rmswi/#/lists/200000029659/terms/200000029877" />
                        <code value="200000029877" />
                        <display value="15. INSTRUCTIONS ON USE" />
                      </coding>
                    </code>
                    <text>
                      <status value="generated" />
                      <div xmlns="http://www.w3.org/1999/xhtml" />
                    </text>
                  </section>
                  <section id="ba2dc0c6-25e0-ed11-a7c7-000d3aaa0c5f">
                    <title value="16. INFORMATION IN BRAILLE" />
                    <code>
                      <coding>
                        <system value="https://spor.ema.europa.eu/rmswi/#/lists/200000029659/terms/200000029878" />
                        <code value="200000029878" />
                        <display value="16. INFORMATION IN BRAILLE" />
                      </coding>
                    </code>
                    <text>
                      <status value="generated" />
                      <div xmlns="http://www.w3.org/1999/xhtml" />
                    </text>
                  </section>
                  <section id="c12dc0c6-25e0-ed11-a7c7-000d3aaa0c5f">
                    <title value="17. UNIQUE IDENTIFIER - 2D BARCODE" />
                    <code>
                      <coding>
                        <system value="https://spor.ema.europa.eu/rmswi/#/lists/200000029659/terms/200000029879" />
                        <code value="200000029879" />
                        <display value="17. UNIQUE IDENTIFIER - 2D BARCODE" />
                      </coding>
                    </code>
                    <text>
                      <status value="generated" />
                      <div xmlns="http://www.w3.org/1999/xhtml" />
                    </text>
                  </section>
                  <section id="d42dc0c6-25e0-ed11-a7c7-000d3aaa0c5f">
                    <title value="18. UNIQUE IDENTIFIER - HUMAN READABLE DATA" />
                    <code>
                      <coding>
                        <system value="https://spor.ema.europa.eu/rmswi/#/lists/200000029659/terms/200000029880" />
                        <code value="200000029880" />
                        <display value="18. UNIQUE IDENTIFIER - HUMAN READABLE DATA" />
                      </coding>
                    </code>
                    <text>
                      <status value="generated" />
                      <div xmlns="http://www.w3.org/1999/xhtml" />
                    </text>
                  </section>
                </section>
              </section>
            </Composition>
          </resource>
        </entry>
      </Bundle>
    </resource>
  </entry>
</Bundle>