{
  "resourceType" : "Bundle",
  "id" : "36c8b3af-25e0-ed11-a81b-6045bd9603ee",
  "meta" : {
    "versionId" : "1",
    "lastUpdated" : "2023-04-21T12:41:28.269+00:00"
  },
  "identifier" : {
    "system" : "http://ema.europa.eu/fhir",
    "value" : "36c8b3af-25e0-ed11-a81b-6045bd9603ee"
  },
  "type" : "collection",
  "timestamp" : "2023-04-21T12:41:28.269+00:00",
  "entry" : [{
    "fullUrl" : "urn:uuid:36c8b3af-25e0-ed11-a81b-6045bd9603ee",
    "resource" : {
      "resourceType" : "List",
      "status" : "current",
      "mode" : "working",
      "entry" : [{
        "item" : {
          "reference" : "urn:uuid:d429d4b4-25e0-ed11-a7c7-000d3aaa0c5f"
        }
      },
      {
        "item" : {
          "reference" : "urn:uuid:2f85c5c0-25e0-ed11-a7c7-000d3aaa0c5f"
        }
      },
      {
        "item" : {
          "reference" : "urn:uuid:a585c5c0-25e0-ed11-a7c7-000d3aaa0c5f"
        }
      },
      {
        "item" : {
          "reference" : "urn:uuid:ec86c5c0-25e0-ed11-a7c7-000d3aaa0c5f"
        }
      }]
    }
  },
  {
    "fullUrl" : "urn:uuid:d429d4b4-25e0-ed11-a7c7-000d3aaa0c5f",
    "resource" : {
      "resourceType" : "Bundle",
      "id" : "d429d4b4-25e0-ed11-a7c7-000d3aaa0c5f",
      "meta" : {
        "versionId" : "1",
        "lastUpdated" : "2023-04-21T12:41:17.789+00:00"
      },
      "identifier" : {
        "system" : "http://ema.europa.eu/fhir",
        "value" : "d429d4b4-25e0-ed11-a7c7-000d3aaa0c5f"
      },
      "type" : "document",
      "timestamp" : "2023-04-21T12:41:17.789+00:00",
      "entry" : [{
        "fullUrl" : "urn:uuid:d429d4b4-25e0-ed11-a7c7-000d3aaa0c5f",
        "resource" : {
          "resourceType" : "Composition",
          "id" : "d429d4b4-25e0-ed11-a7c7-000d3aaa0c5f",
          "language" : "en",
          "status" : "final",
          "type" : {
            "coding" : [{
              "system" : "https://spor.ema.europa.eu/rmswi/#/lists/100000155531/terms/100000155532",
              "code" : "100000155532",
              "display" : "Summary of Product Characteristics"
            }]
          },
          "date" : "2023-04-21",
          "author" : [{
            "identifier" : {
              "value" : "systemuser"
            }
          }],
          "title" : "Summary of Product Characteristics",
          "section" : [{
            "id" : "12dccaba-25e0-ed11-a7c7-000d3aaa0c5f",
            "title" : "SUMMARY OF PRODUCT CHARACTERISTICS",
            "code" : {
              "coding" : [{
                "system" : "https://spor.ema.europa.eu/rmswi/#/lists/200000029659/terms/200000029791",
                "code" : "200000029791",
                "display" : "SUMMARY OF PRODUCT CHARACTERISTICS"
              }]
            },
            "text" : {
              "status" : "generated",
              "div" : "<div xmlns=\"http://www.w3.org/1999/xhtml\"/>"
            },
            "section" : [{
              "id" : "19dccaba-25e0-ed11-a7c7-000d3aaa0c5f",
              "title" : "1. NAME OF THE MEDICINAL PRODUCT",
              "code" : {
                "coding" : [{
                  "system" : "https://spor.ema.europa.eu/rmswi/#/lists/200000029659/terms/200000029792",
                  "code" : "200000029792",
                  "display" : "1. NAME OF THE MEDICINAL PRODUCT"
                }]
              },
              "text" : {
                "status" : "generated",
                "div" : "<div xmlns=\"http://www.w3.org/1999/xhtml\"/>"
              }
            },
            {
              "id" : "2adccaba-25e0-ed11-a7c7-000d3aaa0c5f",
              "title" : "2. QUALITATIVE AND QUANTITATIVE COMPOSITION",
              "code" : {
                "coding" : [{
                  "system" : "https://spor.ema.europa.eu/rmswi/#/lists/200000029659/terms/200000029793",
                  "code" : "200000029793",
                  "display" : "2. QUALITATIVE AND QUANTITATIVE COMPOSITION"
                }]
              },
              "text" : {
                "status" : "generated",
                "div" : "<div xmlns=\"http://www.w3.org/1999/xhtml\"/>"
              }
            },
            {
              "id" : "5ddccaba-25e0-ed11-a7c7-000d3aaa0c5f",
              "title" : "3. PHARMACEUTICAL FORM",
              "code" : {
                "coding" : [{
                  "system" : "https://spor.ema.europa.eu/rmswi/#/lists/200000029659/terms/200000029797",
                  "code" : "200000029797",
                  "display" : "3. PHARMACEUTICAL FORM"
                }]
              },
              "text" : {
                "status" : "generated",
                "div" : "<div xmlns=\"http://www.w3.org/1999/xhtml\"/>"
              }
            },
            {
              "id" : "65dccaba-25e0-ed11-a7c7-000d3aaa0c5f",
              "title" : "4. CLINICAL PARTICULARS",
              "code" : {
                "coding" : [{
                  "system" : "https://spor.ema.europa.eu/rmswi/#/lists/200000029659/terms/200000029798",
                  "code" : "200000029798",
                  "display" : "4. CLINICAL PARTICULARS"
                }]
              },
              "text" : {
                "status" : "generated",
                "div" : "<div xmlns=\"http://www.w3.org/1999/xhtml\"/>"
              },
              "section" : [{
                "id" : "80dccaba-25e0-ed11-a7c7-000d3aaa0c5f",
                "title" : "4.1 Therapeutic indications",
                "code" : {
                  "coding" : [{
                    "system" : "https://spor.ema.europa.eu/rmswi/#/lists/200000029659/terms/200000029799",
                    "code" : "200000029799",
                    "display" : "4.1 Therapeutic indications"
                  }]
                },
                "text" : {
                  "status" : "generated",
                  "div" : "<div xmlns=\"http://www.w3.org/1999/xhtml\"/>"
                }
              },
              {
                "id" : "8adccaba-25e0-ed11-a7c7-000d3aaa0c5f",
                "title" : "4.2 Posology and method of administration",
                "code" : {
                  "coding" : [{
                    "system" : "https://spor.ema.europa.eu/rmswi/#/lists/200000029659/terms/200000029800",
                    "code" : "200000029800",
                    "display" : "4.2 Posology and method of administration"
                  }]
                },
                "text" : {
                  "status" : "generated",
                  "div" : "<div xmlns=\"http://www.w3.org/1999/xhtml\"/>"
                },
                "section" : [{
                  "id" : "91dccaba-25e0-ed11-a7c7-000d3aaa0c5f",
                  "title" : "Posology",
                  "code" : {
                    "coding" : [{
                      "system" : "https://spor.ema.europa.eu/rmswi/#/lists/200000029659/terms/200000029801",
                      "code" : "200000029801",
                      "display" : "Posology"
                    }]
                  },
                  "text" : {
                    "status" : "generated",
                    "div" : "<div xmlns=\"http://www.w3.org/1999/xhtml\"/>"
                  },
                  "section" : [{
                    "id" : "9bdccaba-25e0-ed11-a7c7-000d3aaa0c5f",
                    "title" : "Paediatric population",
                    "code" : {
                      "coding" : [{
                        "system" : "https://spor.ema.europa.eu/rmswi/#/lists/200000029659/terms/200000029802",
                        "code" : "200000029802",
                        "display" : "Paediatric population"
                      }]
                    },
                    "text" : {
                      "status" : "generated",
                      "div" : "<div xmlns=\"http://www.w3.org/1999/xhtml\"/>"
                    }
                  }]
                },
                {
                  "id" : "acdccaba-25e0-ed11-a7c7-000d3aaa0c5f",
                  "title" : "Method of administration",
                  "code" : {
                    "coding" : [{
                      "system" : "https://spor.ema.europa.eu/rmswi/#/lists/200000029659/terms/200000029803",
                      "code" : "200000029803",
                      "display" : "Method of administration"
                    }]
                  },
                  "text" : {
                    "status" : "generated",
                    "div" : "<div xmlns=\"http://www.w3.org/1999/xhtml\"/>"
                  }
                }]
              },
              {
                "id" : "c2dccaba-25e0-ed11-a7c7-000d3aaa0c5f",
                "title" : "4.3 Contraindications",
                "code" : {
                  "coding" : [{
                    "system" : "https://spor.ema.europa.eu/rmswi/#/lists/200000029659/terms/200000029805",
                    "code" : "200000029805",
                    "display" : "4.3 Contraindications"
                  }]
                },
                "text" : {
                  "status" : "generated",
                  "div" : "<div xmlns=\"http://www.w3.org/1999/xhtml\"/>"
                }
              },
              {
                "id" : "cbdccaba-25e0-ed11-a7c7-000d3aaa0c5f",
                "title" : "4.4 Special warnings and precautions for use",
                "code" : {
                  "coding" : [{
                    "system" : "https://spor.ema.europa.eu/rmswi/#/lists/200000029659/terms/200000029806",
                    "code" : "200000029806",
                    "display" : "4.4 Special warnings and precautions for use"
                  }]
                },
                "text" : {
                  "status" : "generated",
                  "div" : "<div xmlns=\"http://www.w3.org/1999/xhtml\"/>"
                }
              },
              {
                "id" : "ebdccaba-25e0-ed11-a7c7-000d3aaa0c5f",
                "title" : "4.5 Interaction with other medicinal products and other forms of interaction",
                "code" : {
                  "coding" : [{
                    "system" : "https://spor.ema.europa.eu/rmswi/#/lists/200000029659/terms/200000029809",
                    "code" : "200000029809",
                    "display" : "4.5 Interaction with other medicinal products and other forms of interaction"
                  }]
                },
                "text" : {
                  "status" : "generated",
                  "div" : "<div xmlns=\"http://www.w3.org/1999/xhtml\"/>"
                }
              },
              {
                "id" : "fadccaba-25e0-ed11-a7c7-000d3aaa0c5f",
                "title" : "4.6 Fertility, pregnancy and lactation",
                "code" : {
                  "coding" : [{
                    "system" : "https://spor.ema.europa.eu/rmswi/#/lists/200000029659/terms/200000029811",
                    "code" : "200000029811",
                    "display" : "4.6 Fertility, pregnancy and lactation"
                  }]
                },
                "text" : {
                  "status" : "generated",
                  "div" : "<div xmlns=\"http://www.w3.org/1999/xhtml\"/>"
                }
              },
              {
                "id" : "20ddcaba-25e0-ed11-a7c7-000d3aaa0c5f",
                "title" : "4.7 Effects on ability to drive and use machines",
                "code" : {
                  "coding" : [{
                    "system" : "https://spor.ema.europa.eu/rmswi/#/lists/200000029659/terms/200000029815",
                    "code" : "200000029815",
                    "display" : "4.7 Effects on ability to drive and use machines"
                  }]
                },
                "text" : {
                  "status" : "generated",
                  "div" : "<div xmlns=\"http://www.w3.org/1999/xhtml\"/>"
                }
              },
              {
                "id" : "28ddcaba-25e0-ed11-a7c7-000d3aaa0c5f",
                "title" : "4.8 Undesirable effects",
                "code" : {
                  "coding" : [{
                    "system" : "https://spor.ema.europa.eu/rmswi/#/lists/200000029659/terms/200000029816",
                    "code" : "200000029816",
                    "display" : "4.8 Undesirable effects"
                  }]
                },
                "text" : {
                  "status" : "generated",
                  "div" : "<div xmlns=\"http://www.w3.org/1999/xhtml\"/>"
                },
                "section" : [{
                  "id" : "41ddcaba-25e0-ed11-a7c7-000d3aaa0c5f",
                  "title" : "Reporting of suspected adverse reactions",
                  "code" : {
                    "coding" : [{
                      "system" : "https://spor.ema.europa.eu/rmswi/#/lists/200000029659/terms/200000029818",
                      "code" : "200000029818",
                      "display" : "Reporting of suspected adverse reactions"
                    }]
                  },
                  "text" : {
                    "status" : "generated",
                    "div" : "<div xmlns=\"http://www.w3.org/1999/xhtml\"/>"
                  }
                }]
              },
              {
                "id" : "4dddcaba-25e0-ed11-a7c7-000d3aaa0c5f",
                "title" : "4.9 Overdose",
                "code" : {
                  "coding" : [{
                    "system" : "https://spor.ema.europa.eu/rmswi/#/lists/200000029659/terms/200000029819",
                    "code" : "200000029819",
                    "display" : "4.9 Overdose"
                  }]
                },
                "text" : {
                  "status" : "generated",
                  "div" : "<div xmlns=\"http://www.w3.org/1999/xhtml\"/>"
                }
              }]
            },
            {
              "id" : "5bddcaba-25e0-ed11-a7c7-000d3aaa0c5f",
              "title" : "5. PHARMACOLOGICAL PROPERTIES",
              "code" : {
                "coding" : [{
                  "system" : "https://spor.ema.europa.eu/rmswi/#/lists/200000029659/terms/200000029821",
                  "code" : "200000029821",
                  "display" : "5. PHARMACOLOGICAL PROPERTIES"
                }]
              },
              "text" : {
                "status" : "generated",
                "div" : "<div xmlns=\"http://www.w3.org/1999/xhtml\"/>"
              },
              "section" : [{
                "id" : "65ddcaba-25e0-ed11-a7c7-000d3aaa0c5f",
                "title" : "5.1 Pharmacodynamic properties",
                "code" : {
                  "coding" : [{
                    "system" : "https://spor.ema.europa.eu/rmswi/#/lists/200000029659/terms/200000029822",
                    "code" : "200000029822",
                    "display" : "5.1 Pharmacodynamic properties"
                  }]
                },
                "text" : {
                  "status" : "generated",
                  "div" : "<div xmlns=\"http://www.w3.org/1999/xhtml\"/>"
                }
              },
              {
                "id" : "93ddcaba-25e0-ed11-a7c7-000d3aaa0c5f",
                "title" : "5.2 Pharmacokinetic properties",
                "code" : {
                  "coding" : [{
                    "system" : "https://spor.ema.europa.eu/rmswi/#/lists/200000029659/terms/200000029827",
                    "code" : "200000029827",
                    "display" : "5.2 Pharmacokinetic properties"
                  }]
                },
                "text" : {
                  "status" : "generated",
                  "div" : "<div xmlns=\"http://www.w3.org/1999/xhtml\"/>"
                }
              },
              {
                "id" : "d2ddcaba-25e0-ed11-a7c7-000d3aaa0c5f",
                "title" : "5.3 Preclinical safety data",
                "code" : {
                  "coding" : [{
                    "system" : "https://spor.ema.europa.eu/rmswi/#/lists/200000029659/terms/200000029834",
                    "code" : "200000029834",
                    "display" : "5.3 Preclinical safety data"
                  }]
                },
                "text" : {
                  "status" : "generated",
                  "div" : "<div xmlns=\"http://www.w3.org/1999/xhtml\"/>"
                }
              }]
            },
            {
              "id" : "e6ddcaba-25e0-ed11-a7c7-000d3aaa0c5f",
              "title" : "6. PHARMACEUTICAL PARTICULARS",
              "code" : {
                "coding" : [{
                  "system" : "https://spor.ema.europa.eu/rmswi/#/lists/200000029659/terms/200000029836",
                  "code" : "200000029836",
                  "display" : "6. PHARMACEUTICAL PARTICULARS"
                }]
              },
              "text" : {
                "status" : "generated",
                "div" : "<div xmlns=\"http://www.w3.org/1999/xhtml\"/>"
              },
              "section" : [{
                "id" : "efddcaba-25e0-ed11-a7c7-000d3aaa0c5f",
                "title" : "6.1 List of excipients",
                "code" : {
                  "coding" : [{
                    "system" : "https://spor.ema.europa.eu/rmswi/#/lists/200000029659/terms/200000029837",
                    "code" : "200000029837",
                    "display" : "6.1 List of excipients"
                  }]
                },
                "text" : {
                  "status" : "generated",
                  "div" : "<div xmlns=\"http://www.w3.org/1999/xhtml\"/>"
                }
              },
              {
                "id" : "f5ddcaba-25e0-ed11-a7c7-000d3aaa0c5f",
                "title" : "6.2 Incompatibilities",
                "code" : {
                  "coding" : [{
                    "system" : "https://spor.ema.europa.eu/rmswi/#/lists/200000029659/terms/200000029838",
                    "code" : "200000029838",
                    "display" : "6.2 Incompatibilities"
                  }]
                },
                "text" : {
                  "status" : "generated",
                  "div" : "<div xmlns=\"http://www.w3.org/1999/xhtml\"/>"
                }
              },
              {
                "id" : "ffddcaba-25e0-ed11-a7c7-000d3aaa0c5f",
                "title" : "6.3 Shelf life",
                "code" : {
                  "coding" : [{
                    "system" : "https://spor.ema.europa.eu/rmswi/#/lists/200000029659/terms/200000029839",
                    "code" : "200000029839",
                    "display" : "6.3 Shelf life"
                  }]
                },
                "text" : {
                  "status" : "generated",
                  "div" : "<div xmlns=\"http://www.w3.org/1999/xhtml\"/>"
                }
              },
              {
                "id" : "0edecaba-25e0-ed11-a7c7-000d3aaa0c5f",
                "title" : "6.4 Special precautions for storage",
                "code" : {
                  "coding" : [{
                    "system" : "https://spor.ema.europa.eu/rmswi/#/lists/200000029659/terms/200000029840",
                    "code" : "200000029840",
                    "display" : "6.4 Special precautions for storage"
                  }]
                },
                "text" : {
                  "status" : "generated",
                  "div" : "<div xmlns=\"http://www.w3.org/1999/xhtml\"/>"
                }
              },
              {
                "id" : "17decaba-25e0-ed11-a7c7-000d3aaa0c5f",
                "title" : "6.5 Nature and contents of container <and special equipment for use, administration or implantation>",
                "code" : {
                  "coding" : [{
                    "system" : "https://spor.ema.europa.eu/rmswi/#/lists/200000029659/terms/200000029841",
                    "code" : "200000029841",
                    "display" : "6.5 Nature and contents of container <and special equipment for use, administration or implantation>"
                  }]
                },
                "text" : {
                  "status" : "generated",
                  "div" : "<div xmlns=\"http://www.w3.org/1999/xhtml\"/>"
                }
              },
              {
                "id" : "d984c5c0-25e0-ed11-a7c7-000d3aaa0c5f",
                "title" : "6.6 Special precautions for disposal <and other handling>",
                "code" : {
                  "coding" : [{
                    "system" : "https://spor.ema.europa.eu/rmswi/#/lists/200000029659/terms/200000029842",
                    "code" : "200000029842",
                    "display" : "6.6 Special precautions for disposal <and other handling>"
                  }]
                },
                "text" : {
                  "status" : "generated",
                  "div" : "<div xmlns=\"http://www.w3.org/1999/xhtml\"/>"
                }
              }]
            },
            {
              "id" : "e984c5c0-25e0-ed11-a7c7-000d3aaa0c5f",
              "title" : "7. MARKETING AUTHORISATION HOLDER",
              "code" : {
                "coding" : [{
                  "system" : "https://spor.ema.europa.eu/rmswi/#/lists/200000029659/terms/200000029844",
                  "code" : "200000029844",
                  "display" : "7. MARKETING AUTHORISATION HOLDER"
                }]
              },
              "text" : {
                "status" : "generated",
                "div" : "<div xmlns=\"http://www.w3.org/1999/xhtml\"/>"
              }
            },
            {
              "id" : "f184c5c0-25e0-ed11-a7c7-000d3aaa0c5f",
              "title" : "8. MARKETING AUTHORISATION NUMBER(S)",
              "code" : {
                "coding" : [{
                  "system" : "https://spor.ema.europa.eu/rmswi/#/lists/200000029659/terms/200000029845",
                  "code" : "200000029845",
                  "display" : "8. MARKETING AUTHORISATION NUMBER(S)"
                }]
              },
              "text" : {
                "status" : "generated",
                "div" : "<div xmlns=\"http://www.w3.org/1999/xhtml\"/>"
              }
            },
            {
              "id" : "0485c5c0-25e0-ed11-a7c7-000d3aaa0c5f",
              "title" : "9. DATE OF FIRST AUTHORISATION/RENEWAL OF THE AUTHORISATION",
              "code" : {
                "coding" : [{
                  "system" : "https://spor.ema.europa.eu/rmswi/#/lists/200000029659/terms/200000029846",
                  "code" : "200000029846",
                  "display" : "9. DATE OF FIRST AUTHORISATION/RENEWAL OF THE AUTHORISATION"
                }]
              },
              "text" : {
                "status" : "generated",
                "div" : "<div xmlns=\"http://www.w3.org/1999/xhtml\"/>"
              }
            },
            {
              "id" : "1085c5c0-25e0-ed11-a7c7-000d3aaa0c5f",
              "title" : "10. DATE OF REVISION OF THE TEXT",
              "code" : {
                "coding" : [{
                  "system" : "https://spor.ema.europa.eu/rmswi/#/lists/200000029659/terms/200000029847",
                  "code" : "200000029847",
                  "display" : "10. DATE OF REVISION OF THE TEXT"
                }]
              },
              "text" : {
                "status" : "generated",
                "div" : "<div xmlns=\"http://www.w3.org/1999/xhtml\"/>"
              }
            }]
          }]
        }
      }]
    }
  },
  {
    "fullUrl" : "urn:uuid:2f85c5c0-25e0-ed11-a7c7-000d3aaa0c5f",
    "resource" : {
      "resourceType" : "Bundle",
      "id" : "2f85c5c0-25e0-ed11-a7c7-000d3aaa0c5f",
      "meta" : {
        "versionId" : "1",
        "lastUpdated" : "2023-04-21T12:41:23.222+00:00"
      },
      "identifier" : {
        "system" : "http://ema.europa.eu/fhir",
        "value" : "2f85c5c0-25e0-ed11-a7c7-000d3aaa0c5f"
      },
      "type" : "document",
      "timestamp" : "2023-04-21T12:41:23.222+00:00",
      "entry" : [{
        "fullUrl" : "urn:uuid:2f85c5c0-25e0-ed11-a7c7-000d3aaa0c5f",
        "resource" : {
          "resourceType" : "Composition",
          "id" : "2f85c5c0-25e0-ed11-a7c7-000d3aaa0c5f",
          "language" : "en",
          "status" : "final",
          "type" : {
            "coding" : [{
              "system" : "https://spor.ema.europa.eu/rmswi/#/lists/100000155531/terms/100000155533",
              "code" : "100000155533",
              "display" : "Annex II"
            }]
          },
          "date" : "2023-04-21",
          "author" : [{
            "identifier" : {
              "value" : "systemuser"
            }
          }],
          "title" : "Annex II",
          "section" : [{
            "id" : "3985c5c0-25e0-ed11-a7c7-000d3aaa0c5f",
            "title" : "ANNEX II",
            "code" : {
              "coding" : [{
                "system" : "https://spor.ema.europa.eu/rmswi/#/lists/200000029659/terms/200000029850",
                "code" : "200000029850",
                "display" : "ANNEX II"
              }]
            },
            "text" : {
              "status" : "generated",
              "div" : "<div xmlns=\"http://www.w3.org/1999/xhtml\"/>"
            },
            "section" : [{
              "id" : "4185c5c0-25e0-ed11-a7c7-000d3aaa0c5f",
              "title" : "A. <MANUFACTURER(S) OF THE BIOLOGICAL ACTIVE SUBSTANCE(S) AND> MANUFACTURER(S) RESPONSIBLE FOR BATCH RELEASE",
              "code" : {
                "coding" : [{
                  "system" : "https://spor.ema.europa.eu/rmswi/#/lists/200000029659/terms/200000029851",
                  "code" : "200000029851",
                  "display" : "A. <MANUFACTURER(S) OF THE BIOLOGICAL ACTIVE SUBSTANCE(S) AND> MANUFACTURER(S) RESPONSIBLE FOR BATCH RELEASE"
                }]
              },
              "text" : {
                "status" : "generated",
                "div" : "<div xmlns=\"http://www.w3.org/1999/xhtml\"/>"
              }
            },
            {
              "id" : "4785c5c0-25e0-ed11-a7c7-000d3aaa0c5f",
              "title" : "B. CONDITIONS OR RESTRICTIONS REGARDING SUPPLY AND USE",
              "code" : {
                "coding" : [{
                  "system" : "https://spor.ema.europa.eu/rmswi/#/lists/200000029659/terms/200000029852",
                  "code" : "200000029852",
                  "display" : "B. CONDITIONS OR RESTRICTIONS REGARDING SUPPLY AND USE"
                }]
              },
              "text" : {
                "status" : "generated",
                "div" : "<div xmlns=\"http://www.w3.org/1999/xhtml\"/>"
              }
            },
            {
              "id" : "5d85c5c0-25e0-ed11-a7c7-000d3aaa0c5f",
              "title" : "C. OTHER CONDITIONS AND REQUIREMENTS OF THE MARKETING AUTHORISATION",
              "code" : {
                "coding" : [{
                  "system" : "https://spor.ema.europa.eu/rmswi/#/lists/200000029659/terms/200000029854",
                  "code" : "200000029854",
                  "display" : "C. OTHER CONDITIONS AND REQUIREMENTS OF THE MARKETING AUTHORISATION"
                }]
              },
              "text" : {
                "status" : "generated",
                "div" : "<div xmlns=\"http://www.w3.org/1999/xhtml\"/>"
              },
              "section" : [{
                "id" : "6585c5c0-25e0-ed11-a7c7-000d3aaa0c5f",
                "title" : "Periodic safety update reports (PSURs)",
                "code" : {
                  "coding" : [{
                    "system" : "https://spor.ema.europa.eu/rmswi/#/lists/200000029659/terms/200000029855",
                    "code" : "200000029855",
                    "display" : "Periodic safety update reports (PSURs)"
                  }]
                },
                "text" : {
                  "status" : "generated",
                  "div" : "<div xmlns=\"http://www.w3.org/1999/xhtml\"/>"
                }
              }]
            },
            {
              "id" : "7085c5c0-25e0-ed11-a7c7-000d3aaa0c5f",
              "title" : "D. CONDITIONS OR RESTRICTIONS WITH REGARD TO THE SAFE AND EFFECTIVE USE OF THE MEDICINAL PRODUCT",
              "code" : {
                "coding" : [{
                  "system" : "https://spor.ema.europa.eu/rmswi/#/lists/200000029659/terms/200000029856",
                  "code" : "200000029856",
                  "display" : "D. CONDITIONS OR RESTRICTIONS WITH REGARD TO THE SAFE AND EFFECTIVE USE OF THE MEDICINAL PRODUCT"
                }]
              },
              "text" : {
                "status" : "generated",
                "div" : "<div xmlns=\"http://www.w3.org/1999/xhtml\"/>"
              },
              "section" : [{
                "id" : "7d85c5c0-25e0-ed11-a7c7-000d3aaa0c5f",
                "title" : "Risk management plan (RMP)",
                "code" : {
                  "coding" : [{
                    "system" : "https://spor.ema.europa.eu/rmswi/#/lists/200000029659/terms/200000029857",
                    "code" : "200000029857",
                    "display" : "Risk management plan (RMP)"
                  }]
                },
                "text" : {
                  "status" : "generated",
                  "div" : "<div xmlns=\"http://www.w3.org/1999/xhtml\"/>"
                }
              }]
            }]
          }]
        }
      }]
    }
  },
  {
    "fullUrl" : "urn:uuid:a585c5c0-25e0-ed11-a7c7-000d3aaa0c5f",
    "resource" : {
      "resourceType" : "Bundle",
      "id" : "a585c5c0-25e0-ed11-a7c7-000d3aaa0c5f",
      "meta" : {
        "versionId" : "1",
        "lastUpdated" : "2023-04-21T12:41:24.458+00:00"
      },
      "identifier" : {
        "system" : "http://ema.europa.eu/fhir",
        "value" : "a585c5c0-25e0-ed11-a7c7-000d3aaa0c5f"
      },
      "type" : "document",
      "timestamp" : "2023-04-21T12:41:24.458+00:00",
      "entry" : [{
        "fullUrl" : "urn:uuid:a585c5c0-25e0-ed11-a7c7-000d3aaa0c5f",
        "resource" : {
          "resourceType" : "Composition",
          "id" : "a585c5c0-25e0-ed11-a7c7-000d3aaa0c5f",
          "language" : "en",
          "status" : "final",
          "type" : {
            "coding" : [{
              "system" : "https://spor.ema.europa.eu/rmswi/#/lists/100000155531/terms/100000155538",
              "code" : "100000155538",
              "display" : "Package Leaflet"
            }]
          },
          "date" : "2023-04-21",
          "author" : [{
            "identifier" : {
              "value" : "systemuser"
            }
          }],
          "title" : "Package Leaflet",
          "section" : [{
            "id" : "ba85c5c0-25e0-ed11-a7c7-000d3aaa0c5f",
            "title" : "PACKAGE LEAFLET",
            "code" : {
              "coding" : [{
                "system" : "https://spor.ema.europa.eu/rmswi/#/lists/200000029659/terms/200000029894",
                "code" : "200000029894",
                "display" : "PACKAGE LEAFLET"
              }]
            },
            "text" : {
              "status" : "generated",
              "div" : "<div xmlns=\"http://www.w3.org/1999/xhtml\">&lt;p class=&quot;MsoNormal&quot; style=&quot;text-align: center;&quot; align=&quot;center&quot;&gt;&lt;strong style=&quot;mso-bidi-font-weight: normal;&quot;&gt;&lt;span lang=&quot;EN-GB&quot; style=&quot;mso-bidi-font-size: 11.0pt; mso-no-proof: yes;&quot;&gt;Package leaflet: Information for the user&lt;/span&gt;&lt;/strong&gt;&lt;/p&gt;\n&lt;p class=&quot;MsoNormal&quot; style=&quot;text-align: center; line-height: normal; mso-list: skip; tab-stops: 36.0pt; background: white;&quot; align=&quot;center&quot;&gt;&lt;span lang=&quot;EN-GB&quot; style=&quot;mso-bidi-font-size: 11.0pt; mso-no-proof: yes;&quot;&gt;\u00a0&lt;/span&gt;&lt;/p&gt;\n&lt;p class=&quot;SmPC-PLtext&quot; style=&quot;text-align: center;&quot; align=&quot;center&quot;&gt;&lt;strong style=&quot;mso-bidi-font-weight: normal;&quot;&gt;&lt;span style=&quot;mso-fareast-font-family: 'MS Mincho'; color: windowtext; mso-ansi-language: EN-US;&quot;&gt;Flucelvax Tetra&lt;/span&gt;&lt;/strong&gt;&lt;strong style=&quot;mso-bidi-font-weight: normal;&quot;&gt;&lt;span lang=&quot;EN-GB&quot; style=&quot;color: windowtext;&quot;&gt; - suspension for injection in pre-filled syringe&lt;/span&gt;&lt;/strong&gt;&lt;/p&gt;\n&lt;p class=&quot;SmPC-PLtext&quot; style=&quot;text-align: center;&quot; align=&quot;center&quot;&gt;&lt;span lang=&quot;EN-GB&quot; style=&quot;color: windowtext;&quot;&gt;Influenza vaccine (surface antigen, inactivated, prepared in cell cultures)&lt;/span&gt;&lt;/p&gt;\n&lt;p class=&quot;MsoNormal&quot; style=&quot;line-height: normal; tab-stops: 36.0pt;&quot;&gt;&lt;span lang=&quot;EN-GB&quot; style=&quot;mso-bidi-font-size: 11.0pt; mso-no-proof: yes;&quot;&gt;\u00a0&lt;/span&gt;&lt;/p&gt;\n&lt;p class=&quot;MsoNormal&quot; style=&quot;line-height: normal; tab-stops: 36.0pt;&quot;&gt;&lt;span lang=&quot;EN-GB&quot; style=&quot;mso-no-proof: yes;&quot;&gt;&lt;img src=&quot;data:image/png;base64,&quot; annotationsrc=&quot;~/_entity/annotation/76a10366-26e0-ed11-a7c6-000d3aaa0403&quot; /&gt;This medicine is subject to additional monitoring. This will allow quick identification of new safety information. You can help by reporting any side effects you may get. See the end of section 4 for how to report side effects.&lt;/span&gt;&lt;/p&gt;\n&lt;p class=&quot;MsoNormal&quot; style=&quot;line-height: normal; mso-hyphenate: none; tab-stops: 36.0pt;&quot;&gt;&lt;strong style=&quot;mso-bidi-font-weight: normal;&quot;&gt;&lt;span lang=&quot;EN-GB&quot; style=&quot;mso-bidi-font-size: 11.0pt; mso-no-proof: yes;&quot;&gt;\u00a0&lt;/span&gt;&lt;/strong&gt;&lt;/p&gt;\n&lt;p class=&quot;MsoNormal&quot; style=&quot;line-height: normal; mso-hyphenate: none; tab-stops: 36.0pt;&quot;&gt;&lt;strong style=&quot;mso-bidi-font-weight: normal;&quot;&gt;&lt;span lang=&quot;EN-GB&quot; style=&quot;mso-bidi-font-size: 11.0pt; mso-no-proof: yes;&quot;&gt;Read all of this leaflet carefully before you receive this medicine because it contains important information for you.&lt;/span&gt;&lt;/strong&gt;&lt;/p&gt;\n&lt;p class=&quot;MsoNormal&quot; style=&quot;text-indent: -1.0cm; line-height: normal; mso-list: l0 level1 lfo1; tab-stops: 36.0pt; margin: 0cm -.1pt .0001pt 1.0cm;&quot;&gt;&lt;!-- [if !supportLists]--&gt;&lt;span lang=&quot;EN-GB&quot; style=&quot;mso-bidi-font-size: 11.0pt; mso-no-proof: yes;&quot;&gt;&lt;span style=&quot;mso-list: Ignore;&quot;&gt;-&lt;span style=&quot;font: 7.0pt 'Times New Roman';&quot;&gt;\u00a0\u00a0\u00a0\u00a0\u00a0\u00a0\u00a0\u00a0\u00a0\u00a0\u00a0\u00a0\u00a0 &lt;/span&gt;&lt;/span&gt;&lt;/span&gt;&lt;!--[endif]--&gt;&lt;span lang=&quot;EN-GB&quot; style=&quot;mso-bidi-font-size: 11.0pt; mso-no-proof: yes;&quot;&gt;Keep this leaflet. You may need to read it again. &lt;/span&gt;&lt;/p&gt;\n&lt;p class=&quot;MsoNormal&quot; style=&quot;text-indent: -1.0cm; line-height: normal; mso-list: l0 level1 lfo1; tab-stops: 36.0pt; margin: 0cm -.1pt .0001pt 1.0cm;&quot;&gt;&lt;!-- [if !supportLists]--&gt;&lt;span lang=&quot;EN-GB&quot; style=&quot;mso-bidi-font-size: 11.0pt; mso-no-proof: yes;&quot;&gt;&lt;span style=&quot;mso-list: Ignore;&quot;&gt;-&lt;span style=&quot;font: 7.0pt 'Times New Roman';&quot;&gt;\u00a0\u00a0\u00a0\u00a0\u00a0\u00a0\u00a0\u00a0\u00a0\u00a0\u00a0\u00a0\u00a0 &lt;/span&gt;&lt;/span&gt;&lt;/span&gt;&lt;!--[endif]--&gt;&lt;span lang=&quot;EN-GB&quot; style=&quot;mso-bidi-font-size: 11.0pt; mso-no-proof: yes;&quot;&gt;If you have any further questions, ask your doctor, pharmacist or nurse.&lt;/span&gt;&lt;/p&gt;\n&lt;p class=&quot;MsoNormal&quot; style=&quot;margin-left: 1.0cm; text-indent: -1.0cm; line-height: normal; mso-list: l0 level1 lfo1;&quot;&gt;&lt;!-- [if !supportLists]--&gt;&lt;span lang=&quot;EN-GB&quot; style=&quot;mso-bidi-font-size: 11.0pt;&quot;&gt;&lt;span style=&quot;mso-list: Ignore;&quot;&gt;-&lt;span style=&quot;font: 7.0pt 'Times New Roman';&quot;&gt;\u00a0\u00a0\u00a0\u00a0\u00a0\u00a0\u00a0\u00a0\u00a0\u00a0\u00a0\u00a0\u00a0 &lt;/span&gt;&lt;/span&gt;&lt;/span&gt;&lt;!--[endif]--&gt;&lt;span lang=&quot;EN-GB&quot; style=&quot;mso-bidi-font-size: 11.0pt; mso-no-proof: yes;&quot;&gt;If you get any side effects, talk to your doctor, pharmacist or nurse.&lt;/span&gt;&lt;span lang=&quot;EN-GB&quot; style=&quot;mso-bidi-font-size: 11.0pt; color: red;&quot;&gt; &lt;/span&gt;&lt;span lang=&quot;EN-GB&quot; style=&quot;mso-bidi-font-size: 11.0pt;&quot;&gt;This includes any possible side effects not listed in this leaflet. See section 4.&lt;/span&gt;&lt;/p&gt;\n&lt;p class=&quot;MsoNormal&quot; style=&quot;margin-right: -.1pt; line-height: normal; tab-stops: 36.0pt;&quot;&gt;&lt;span lang=&quot;EN-GB&quot; style=&quot;mso-bidi-font-size: 11.0pt; mso-no-proof: yes;&quot;&gt;\u00a0&lt;/span&gt;&lt;/p&gt;\n&lt;p class=&quot;MsoNormal&quot; style=&quot;margin-right: -.1pt; line-height: normal; tab-stops: 36.0pt;&quot;&gt;&lt;span lang=&quot;EN-GB&quot; style=&quot;mso-bidi-font-size: 11.0pt; mso-no-proof: yes;&quot;&gt;\u00a0&lt;/span&gt;&lt;/p&gt;\n&lt;p class=&quot;MsoNormal&quot; style=&quot;margin-right: -.1pt; line-height: normal; mso-list: skip; tab-stops: 36.0pt;&quot;&gt;&lt;strong style=&quot;mso-bidi-font-weight: normal;&quot;&gt;&lt;span lang=&quot;EN-GB&quot; style=&quot;mso-bidi-font-size: 11.0pt; mso-no-proof: yes;&quot;&gt;What is in this leaflet&lt;/span&gt;&lt;/strong&gt;&lt;/p&gt;\n&lt;p class=&quot;MsoNormal&quot;&gt;&lt;span lang=&quot;EN-GB&quot; style=&quot;mso-bidi-font-size: 11.0pt; mso-no-proof: yes;&quot;&gt;\u00a0&lt;/span&gt;&lt;/p&gt;\n&lt;p class=&quot;MsoNormal&quot; style=&quot;margin-right: -1.45pt; line-height: normal; mso-list: skip; tab-stops: 21.3pt;&quot;&gt;&lt;span lang=&quot;EN-GB&quot; style=&quot;mso-bidi-font-size: 11.0pt; mso-no-proof: yes;&quot;&gt;1.&lt;span style=&quot;mso-tab-count: 1;&quot;&gt;\u00a0\u00a0\u00a0 &lt;/span&gt;What &lt;/span&gt;&lt;span style=&quot;mso-bidi-font-size: 11.0pt; mso-fareast-font-family: 'MS Mincho'; mso-ansi-language: EN-US;&quot;&gt;Flucelvax Tetra &lt;/span&gt;&lt;span lang=&quot;EN-GB&quot; style=&quot;mso-bidi-font-size: 11.0pt; mso-no-proof: yes;&quot;&gt;is and what it is used for &lt;/span&gt;&lt;/p&gt;\n&lt;p class=&quot;MsoNormal&quot; style=&quot;margin-right: -1.45pt; line-height: normal; mso-list: skip; tab-stops: 21.3pt;&quot;&gt;&lt;span lang=&quot;EN-GB&quot; style=&quot;mso-bidi-font-size: 11.0pt; mso-no-proof: yes;&quot;&gt;2.&lt;span style=&quot;mso-tab-count: 1;&quot;&gt;\u00a0\u00a0\u00a0 &lt;/span&gt;What you need to know before you &lt;span class=&quot;SmPC-PLtextChar&quot;&gt;receive &lt;/span&gt;&lt;/span&gt;&lt;span style=&quot;mso-bidi-font-size: 11.0pt; mso-fareast-font-family: 'MS Mincho'; mso-ansi-language: EN-US;&quot;&gt;Flucelvax Tetra&lt;/span&gt;&lt;span style=&quot;mso-bidi-font-size: 11.0pt; mso-no-proof: yes;&quot;&gt; &lt;/span&gt;&lt;/p&gt;\n&lt;p class=&quot;MsoNormal&quot; style=&quot;margin-right: -1.45pt; line-height: normal; mso-list: skip; tab-stops: 21.3pt;&quot;&gt;&lt;span lang=&quot;EN-GB&quot; style=&quot;mso-bidi-font-size: 11.0pt; mso-no-proof: yes;&quot;&gt;3.&lt;span style=&quot;mso-tab-count: 1;&quot;&gt;\u00a0\u00a0\u00a0 &lt;/span&gt;How &lt;/span&gt;&lt;span style=&quot;mso-bidi-font-size: 11.0pt; mso-fareast-font-family: 'MS Mincho'; mso-ansi-language: EN-US;&quot;&gt;Flucelvax Tetra &lt;/span&gt;&lt;span class=&quot;SmPC-PLtextChar&quot;&gt;&lt;span lang=&quot;EN-GB&quot;&gt;is given&lt;/span&gt;&lt;/span&gt;&lt;span lang=&quot;EN-GB&quot; style=&quot;mso-bidi-font-size: 11.0pt; mso-no-proof: yes;&quot;&gt; &lt;/span&gt;&lt;/p&gt;\n&lt;p class=&quot;MsoNormal&quot; style=&quot;margin-right: -1.45pt; line-height: normal; mso-list: skip; tab-stops: 21.3pt;&quot;&gt;&lt;span lang=&quot;EN-GB&quot; style=&quot;mso-bidi-font-size: 11.0pt; mso-no-proof: yes;&quot;&gt;4.&lt;span style=&quot;mso-tab-count: 1;&quot;&gt;\u00a0\u00a0\u00a0 &lt;/span&gt;Possible side effects &lt;/span&gt;&lt;/p&gt;\n&lt;p class=&quot;MsoNormal&quot; style=&quot;margin-right: -1.45pt; line-height: normal; tab-stops: 21.3pt;&quot;&gt;&lt;span lang=&quot;EN-GB&quot; style=&quot;mso-bidi-font-size: 11.0pt; mso-no-proof: yes;&quot;&gt;5.&lt;span style=&quot;mso-tab-count: 1;&quot;&gt;\u00a0\u00a0\u00a0 &lt;/span&gt;How to store &lt;/span&gt;&lt;span style=&quot;mso-bidi-font-size: 11.0pt; mso-fareast-font-family: 'MS Mincho'; mso-ansi-language: EN-US;&quot;&gt;Flucelvax Tetra &lt;/span&gt;&lt;span style=&quot;mso-bidi-font-size: 11.0pt; mso-no-proof: yes;&quot;&gt;&lt;span style=&quot;mso-spacerun: yes;&quot;&gt;\u00a0&lt;/span&gt;&lt;/span&gt;&lt;/p&gt;\n&lt;p class=&quot;MsoNormal&quot; style=&quot;margin-right: -1.45pt; line-height: normal; tab-stops: 21.3pt;&quot;&gt;&lt;span lang=&quot;EN-GB&quot; style=&quot;mso-bidi-font-size: 11.0pt; mso-no-proof: yes;&quot;&gt;6.&lt;span style=&quot;mso-tab-count: 1;&quot;&gt;\u00a0\u00a0\u00a0 &lt;/span&gt;Contents of the pack and other information&lt;/span&gt;&lt;/p&gt;</div>"
            },
            "section" : [{
              "id" : "c285c5c0-25e0-ed11-a7c7-000d3aaa0c5f",
              "title" : "1. What Flucelvax Tetra is and what it is used for",
              "code" : {
                "coding" : [{
                  "system" : "https://spor.ema.europa.eu/rmswi/#/lists/200000029659/terms/200000029895",
                  "code" : "200000029895",
                  "display" : "1. What X is and what it is used for"
                }]
              },
              "text" : {
                "status" : "generated",
                "div" : "<div xmlns=\"http://www.w3.org/1999/xhtml\">&lt;p class=&quot;SmPC-PLtext&quot;&gt;&lt;span style=&quot;mso-fareast-font-family: 'MS Mincho'; color: windowtext; mso-ansi-language: EN-US;&quot;&gt;Flucelvax Tetra&lt;/span&gt;&lt;span style=&quot;mso-fareast-font-family: 'MS Mincho'; mso-ansi-language: EN-US;&quot;&gt; &lt;/span&gt;&lt;span lang=&quot;EN-GB&quot; style=&quot;color: windowtext;&quot;&gt;is a vaccine against flu (influenza). &lt;/span&gt;&lt;span style=&quot;mso-fareast-font-family: 'MS Mincho'; color: windowtext; mso-ansi-language: EN-US;&quot;&gt;Flucelvax Tetra&lt;/span&gt;&lt;span style=&quot;mso-fareast-font-family: 'MS Mincho'; mso-ansi-language: EN-US;&quot;&gt; &lt;/span&gt;&lt;span class=&quot;SmPC-PLtextChar&quot;&gt;&lt;span lang=&quot;EN-GB&quot; style=&quot;color: windowtext;&quot;&gt;is prepared in cell cultures, and, therefore, is egg-free.&lt;/span&gt;&lt;/span&gt;&lt;/p&gt;\n&lt;p class=&quot;SmPC-PLtext&quot;&gt;&lt;span lang=&quot;EN-GB&quot; style=&quot;color: windowtext;&quot;&gt;When a person is given the vaccine, the immune system (the body’s natural defence system) will produce its own protection against the influenza virus. None of the ingredients in the vaccine can cause flu.&lt;/span&gt;&lt;/p&gt;\n&lt;p class=&quot;SmPC-PLtext&quot;&gt;&lt;span lang=&quot;EN-GB&quot; style=&quot;color: windowtext;&quot;&gt;\u00a0&lt;/span&gt;&lt;/p&gt;\n&lt;p class=&quot;SmPC-PLtext&quot;&gt;&lt;span style=&quot;mso-fareast-font-family: 'MS Mincho'; color: windowtext; mso-ansi-language: EN-US;&quot;&gt;Flucelvax Tetra&lt;/span&gt;&lt;span style=&quot;mso-fareast-font-family: 'MS Mincho'; mso-ansi-language: EN-US;&quot;&gt; &lt;/span&gt;&lt;span lang=&quot;EN-GB&quot; style=&quot;color: windowtext;&quot;&gt;is used to prevent flu in adults and children from 2 years of age.&lt;/span&gt;&lt;/p&gt;\n&lt;p class=&quot;SmPC-PLtext&quot;&gt;&lt;span lang=&quot;EN-GB&quot; style=&quot;color: windowtext;&quot;&gt;\u00a0&lt;/span&gt;&lt;/p&gt;\n&lt;p class=&quot;SmPC-PLtext&quot;&gt;&lt;span lang=&quot;EN-GB&quot; style=&quot;color: windowtext;&quot;&gt;The vaccine targets four strains of influenza virus following the recommendations by the World Health Organisation for the 2022/2023 SEASON.&lt;/span&gt;&lt;/p&gt;</div>"
              }
            },
            {
              "id" : "ca85c5c0-25e0-ed11-a7c7-000d3aaa0c5f",
              "title" : "2. What you need to know before you receive Flucelvax Tetra",
              "code" : {
                "coding" : [{
                  "system" : "https://spor.ema.europa.eu/rmswi/#/lists/200000029659/terms/200000029896",
                  "code" : "200000029896",
                  "display" : "2. What you need to know before you <take> <use> X"
                }]
              },
              "text" : {
                "status" : "generated",
                "div" : "<div xmlns=\"http://www.w3.org/1999/xhtml\"/>"
              },
              "section" : [{
                "id" : "d285c5c0-25e0-ed11-a7c7-000d3aaa0c5f",
                "title" : "You should not receive Flucelvax Tetra:",
                "code" : {
                  "coding" : [{
                    "system" : "https://spor.ema.europa.eu/rmswi/#/lists/200000029659/terms/200000029897",
                    "code" : "200000029897",
                    "display" : "Do not <take> <use> X"
                  }]
                },
                "text" : {
                  "status" : "generated",
                  "div" : "<div xmlns=\"http://www.w3.org/1999/xhtml\">&lt;p class=&quot;SmPC-PLtext&quot; style=&quot;margin-left: 14.2pt; text-indent: -14.2pt;&quot;&gt;&lt;span lang=&quot;EN-GB&quot; style=&quot;color: windowtext;&quot;&gt;If you are allergic to:&lt;/span&gt;&lt;/p&gt;\n&lt;p class=&quot;SmPC-PLtext&quot; style=&quot;margin-left: 36.0pt; text-indent: -18.0pt; mso-list: l0 level1 lfo1; tab-stops: 42.55pt;&quot;&gt;&lt;!-- [if !supportLists]--&gt;&lt;span lang=&quot;EN-GB&quot; style=&quot;font-family: Symbol; mso-fareast-font-family: Symbol; mso-bidi-font-family: Symbol; color: windowtext;&quot;&gt;&lt;span style=&quot;mso-list: Ignore;&quot;&gt;·&lt;span style=&quot;font: 7.0pt 'Times New Roman';&quot;&gt;\u00a0\u00a0\u00a0\u00a0\u00a0\u00a0\u00a0 &lt;/span&gt;&lt;/span&gt;&lt;/span&gt;&lt;!--[endif]--&gt;&lt;span lang=&quot;EN-GB&quot; style=&quot;color: windowtext;&quot;&gt;the active ingredients or any of the other ingredients of this medicine (listed in section\u00a06)&lt;/span&gt;&lt;/p&gt;\n&lt;p class=&quot;SmPC-PLtext&quot; style=&quot;margin-left: 36.0pt; text-indent: -18.0pt; mso-list: l0 level1 lfo1; tab-stops: 42.55pt;&quot;&gt;&lt;!-- [if !supportLists]--&gt;&lt;span lang=&quot;EN-GB&quot; style=&quot;font-family: Symbol; mso-fareast-font-family: Symbol; mso-bidi-font-family: Symbol; color: windowtext;&quot;&gt;&lt;span style=&quot;mso-list: Ignore;&quot;&gt;·&lt;span style=&quot;font: 7.0pt 'Times New Roman';&quot;&gt;\u00a0\u00a0\u00a0\u00a0\u00a0\u00a0\u00a0 &lt;/span&gt;&lt;/span&gt;&lt;/span&gt;&lt;!--[endif]--&gt;&lt;span lang=&quot;EN-GB&quot; style=&quot;color: windowtext;&quot;&gt;beta-propiolactone, cetyltrimethylammonium bromide, or polysorbate\u00a080, which are trace residues from the manufacturing process.&lt;/span&gt;&lt;/p&gt;</div>"
                }
              },
              {
                "id" : "db85c5c0-25e0-ed11-a7c7-000d3aaa0c5f",
                "title" : "Warnings and precautions",
                "code" : {
                  "coding" : [{
                    "system" : "https://spor.ema.europa.eu/rmswi/#/lists/200000029659/terms/200000029898",
                    "code" : "200000029898",
                    "display" : "Warnings and precautions"
                  }]
                },
                "text" : {
                  "status" : "generated",
                  "div" : "<div xmlns=\"http://www.w3.org/1999/xhtml\">&lt;p class=&quot;MsoNormal&quot; style=&quot;line-height: normal; mso-list: skip; tab-stops: 36.0pt;&quot;&gt;&lt;span lang=&quot;EN-GB&quot; style=&quot;mso-bidi-font-size: 11.0pt; mso-no-proof: yes;&quot;&gt;Talk to your doctor, pharmacist or nurse before &lt;span class=&quot;SmPC-PLtextChar&quot;&gt;receiving&lt;/span&gt; &lt;/span&gt;&lt;span style=&quot;mso-bidi-font-size: 11.0pt; mso-fareast-font-family: 'MS Mincho'; mso-ansi-language: EN-US;&quot;&gt;Flucelvax Tetra&lt;/span&gt;&lt;span class=&quot;SmPC-PLtextChar&quot;&gt;&lt;span lang=&quot;EN-GB&quot;&gt;.&lt;/span&gt;&lt;/span&gt;&lt;/p&gt;\n&lt;p class=&quot;MsoNormal&quot; style=&quot;margin-right: -.1pt; line-height: normal; mso-list: skip; tab-stops: 36.0pt;&quot;&gt;&lt;span lang=&quot;EN-GB&quot; style=&quot;mso-bidi-font-size: 11.0pt; mso-no-proof: yes;&quot;&gt;\u00a0&lt;/span&gt;&lt;u&gt;&lt;span style=&quot;color: windowtext; mso-ansi-language: EN-US;&quot;&gt;BEFORE receiving the vaccine&lt;/span&gt;&lt;/u&gt;&lt;/p&gt;\n&lt;p class=&quot;SmPC-PLtext&quot; style=&quot;margin-left: 18.0pt; text-indent: -18.0pt; mso-list: l0 level1 lfo1; tab-stops: 36.0pt;&quot;&gt;&lt;!-- [if !supportLists]--&gt;&lt;span style=&quot;font-family: Symbol; mso-fareast-font-family: Symbol; mso-bidi-font-family: Symbol; color: windowtext; mso-ansi-language: EN-US;&quot;&gt;&lt;span style=&quot;mso-list: Ignore;&quot;&gt;·&lt;span style=&quot;font: 7.0pt 'Times New Roman';&quot;&gt;\u00a0\u00a0\u00a0\u00a0\u00a0\u00a0\u00a0 &lt;/span&gt;&lt;/span&gt;&lt;/span&gt;&lt;!--[endif]--&gt;&lt;span style=&quot;color: windowtext; mso-ansi-language: EN-US;&quot;&gt;Your &lt;span style=&quot;mso-bidi-font-weight: bold;&quot;&gt;doctor or nurse&lt;/span&gt; will make sure that appropriate medical treatment and supervision is readily available in case of a rare anaphylactic reaction (a very severe allergic reaction with symptoms such as difficulty in breathing, dizziness, a weak and rapid pulse and skin rash) following the administration. This reaction may occur with &lt;/span&gt;&lt;span style=&quot;mso-fareast-font-family: 'MS Mincho'; color: windowtext; mso-ansi-language: EN-US;&quot;&gt;Flucelvax Tetra&lt;/span&gt;&lt;span class=&quot;SmPC-PLtextChar&quot;&gt;&lt;span style=&quot;color: windowtext;&quot;&gt; &lt;/span&gt;&lt;/span&gt;&lt;span style=&quot;color: windowtext; mso-ansi-language: EN-US;&quot;&gt;as with all vaccines that are injected.&lt;/span&gt;&lt;/p&gt;\n&lt;p class=&quot;SmPC-PLtext&quot; style=&quot;margin-left: 18.0pt; text-indent: -18.0pt; mso-list: l0 level1 lfo1; tab-stops: 36.0pt;&quot;&gt;&lt;!-- [if !supportLists]--&gt;&lt;span style=&quot;font-family: Symbol; mso-fareast-font-family: Symbol; mso-bidi-font-family: Symbol; color: windowtext; mso-ansi-language: EN-US;&quot;&gt;&lt;span style=&quot;mso-list: Ignore;&quot;&gt;·&lt;span style=&quot;font: 7.0pt 'Times New Roman';&quot;&gt;\u00a0\u00a0\u00a0\u00a0\u00a0\u00a0\u00a0 &lt;/span&gt;&lt;/span&gt;&lt;/span&gt;&lt;!--[endif]--&gt;&lt;span style=&quot;color: windowtext; mso-ansi-language: EN-US;&quot;&gt;You should tell your doctor if you have an acute illness associated with fever. Your doctor may decide to delay your vaccination until your fever is gone.&lt;/span&gt;&lt;/p&gt;\n&lt;p class=&quot;SmPC-PLtext&quot; style=&quot;margin-left: 18.0pt; text-indent: -18.0pt; mso-list: l0 level1 lfo1; tab-stops: 36.0pt;&quot;&gt;&lt;!-- [if !supportLists]--&gt;&lt;span style=&quot;font-family: Symbol; mso-fareast-font-family: Symbol; mso-bidi-font-family: Symbol; color: windowtext; mso-ansi-language: EN-US;&quot;&gt;&lt;span style=&quot;mso-list: Ignore;&quot;&gt;·&lt;span style=&quot;font: 7.0pt 'Times New Roman';&quot;&gt;\u00a0\u00a0\u00a0\u00a0\u00a0\u00a0\u00a0 &lt;/span&gt;&lt;/span&gt;&lt;/span&gt;&lt;!--[endif]--&gt;&lt;span style=&quot;color: windowtext; mso-ansi-language: EN-US; mso-bidi-font-weight: bold;&quot;&gt;You&lt;/span&gt;&lt;span style=&quot;color: windowtext; mso-ansi-language: EN-US;&quot;&gt; should tell your doctor if your immune system is impaired, or if you are undergoing treatment which affects the immune system, e.g. with medicine against cancer (chemotherapy) or corticosteroid medicines (see section “Other medicines and Flucelvax Tetra”).&lt;/span&gt;&lt;/p&gt;\n&lt;p class=&quot;SmPC-PLtext&quot; style=&quot;margin-left: 18.0pt; text-indent: -18.0pt; mso-list: l0 level1 lfo1; tab-stops: 36.0pt;&quot;&gt;&lt;!-- [if !supportLists]--&gt;&lt;span style=&quot;font-family: Symbol; mso-fareast-font-family: Symbol; mso-bidi-font-family: Symbol; color: windowtext; mso-ansi-language: EN-US;&quot;&gt;&lt;span style=&quot;mso-list: Ignore;&quot;&gt;·&lt;span style=&quot;font: 7.0pt 'Times New Roman';&quot;&gt;\u00a0\u00a0\u00a0\u00a0\u00a0\u00a0\u00a0 &lt;/span&gt;&lt;/span&gt;&lt;/span&gt;&lt;!--[endif]--&gt;&lt;span style=&quot;color: windowtext; mso-ansi-language: EN-US;&quot;&gt;You should tell your doctor if you have a bleeding problem or bruise easily.&lt;/span&gt;&lt;/p&gt;\n&lt;p class=&quot;SmPC-PLtext&quot; style=&quot;margin-left: 18.0pt; text-indent: -18.0pt; mso-list: l0 level1 lfo1; tab-stops: 36.0pt;&quot;&gt;&lt;!-- [if !supportLists]--&gt;&lt;span style=&quot;font-family: Symbol; mso-fareast-font-family: Symbol; mso-bidi-font-family: Symbol; color: windowtext; mso-ansi-language: EN-US;&quot;&gt;&lt;span style=&quot;mso-list: Ignore;&quot;&gt;·&lt;span style=&quot;font: 7.0pt 'Times New Roman';&quot;&gt;\u00a0\u00a0\u00a0\u00a0\u00a0\u00a0\u00a0 &lt;/span&gt;&lt;/span&gt;&lt;/span&gt;&lt;!--[endif]--&gt;&lt;span style=&quot;color: windowtext; mso-ansi-language: EN-US;&quot;&gt;Fainting can occur following, or even before, any needle injection, therefore tell the doctor or nurse if you fainted with a previous injection.&lt;/span&gt;&lt;/p&gt;\n&lt;p class=&quot;SmPC-PLtext&quot; style=&quot;tab-stops: 36.0pt;&quot;&gt;&lt;span style=&quot;color: windowtext; mso-ansi-language: EN-US;&quot;&gt;\u00a0&lt;/span&gt;&lt;span style=&quot;color: windowtext; mso-ansi-language: EN-US;&quot;&gt;As with all vaccines, Flucelvax Tetra may not fully protect all persons who are vaccinated.&lt;/span&gt;&lt;/p&gt;</div>"
                }
              },
              {
                "id" : "ea85c5c0-25e0-ed11-a7c7-000d3aaa0c5f",
                "title" : "Children <and adolescents>",
                "code" : {
                  "coding" : [{
                    "system" : "https://spor.ema.europa.eu/rmswi/#/lists/200000029659/terms/200000029899",
                    "code" : "200000029899",
                    "display" : "Children <and adolescents>"
                  }]
                },
                "text" : {
                  "status" : "generated",
                  "div" : "<div xmlns=\"http://www.w3.org/1999/xhtml\"/>"
                }
              },
              {
                "id" : "f385c5c0-25e0-ed11-a7c7-000d3aaa0c5f",
                "title" : "Other medicines and Flucelvax Tetra",
                "code" : {
                  "coding" : [{
                    "system" : "https://spor.ema.europa.eu/rmswi/#/lists/200000029659/terms/200000029900",
                    "code" : "200000029900",
                    "display" : "Other medicines and X"
                  }]
                },
                "text" : {
                  "status" : "generated",
                  "div" : "<div xmlns=\"http://www.w3.org/1999/xhtml\">&lt;p class=&quot;MsoNormal&quot; style=&quot;margin-right: -.1pt; line-height: normal; mso-list: skip; tab-stops: 36.0pt;&quot;&gt;&lt;span lang=&quot;EN-GB&quot; style=&quot;mso-bidi-font-size: 11.0pt;&quot;&gt;Tell your doctor or\u00a0&lt;span class=&quot;SmPC-PLtextChar&quot;&gt;nurse&lt;/span&gt; if you are using, have recently &lt;span style=&quot;mso-no-proof: yes;&quot;&gt;used or might use any other medicines, &lt;span class=&quot;SmPC-PLtextChar&quot;&gt;including medicines obtained without a prescription or if you have recently received any other vaccine.&lt;/span&gt;&lt;/span&gt;&lt;/span&gt;&lt;/p&gt;\n&lt;p class=&quot;MsoNormal&quot; style=&quot;margin-right: -.1pt; line-height: normal; mso-list: skip; tab-stops: 36.0pt;&quot;&gt;&lt;span lang=&quot;EN-GB&quot; style=&quot;mso-bidi-font-size: 11.0pt; mso-no-proof: yes;&quot;&gt;\u00a0&lt;/span&gt;&lt;/p&gt;\n&lt;p class=&quot;SmPC-PLtext&quot;&gt;&lt;span style=&quot;mso-fareast-font-family: 'MS Mincho'; color: windowtext; mso-ansi-language: EN-US;&quot;&gt;Flucelvax Tetra&lt;/span&gt;&lt;span style=&quot;mso-fareast-font-family: 'MS Mincho'; mso-ansi-language: EN-US;&quot;&gt; &lt;/span&gt;&lt;span lang=&quot;EN-GB&quot; style=&quot;color: windowtext;&quot;&gt;may be given at the same time as other vaccines.&lt;/span&gt;&lt;/p&gt;</div>"
                }
              },
              {
                "id" : "fc85c5c0-25e0-ed11-a7c7-000d3aaa0c5f",
                "title" : "X with <food> <and> <,> <drink> <and> <alcohol>",
                "code" : {
                  "coding" : [{
                    "system" : "https://spor.ema.europa.eu/rmswi/#/lists/200000029659/terms/200000029901",
                    "code" : "200000029901",
                    "display" : "X with <food> <and> <,> <drink> <and> <alcohol>"
                  }]
                },
                "text" : {
                  "status" : "generated",
                  "div" : "<div xmlns=\"http://www.w3.org/1999/xhtml\"/>"
                }
              },
              {
                "id" : "0686c5c0-25e0-ed11-a7c7-000d3aaa0c5f",
                "title" : "Pregnancy and breast-feeding",
                "code" : {
                  "coding" : [{
                    "system" : "https://spor.ema.europa.eu/rmswi/#/lists/200000029659/terms/200000029902",
                    "code" : "200000029902",
                    "display" : "Pregnancy <and> <,> breast-feeding <and fertility>"
                  }]
                },
                "text" : {
                  "status" : "generated",
                  "div" : "<div xmlns=\"http://www.w3.org/1999/xhtml\">&lt;p class=&quot;SmPC-PLtext&quot;&gt;&lt;u&gt;&lt;span lang=&quot;EN-GB&quot; style=&quot;color: windowtext;&quot;&gt;Pregnancy:&lt;/span&gt;&lt;/u&gt;&lt;/p&gt;\n&lt;p class=&quot;SmPC-PLtext&quot;&gt;&lt;span lang=&quot;EN-GB&quot; style=&quot;color: windowtext;&quot;&gt;Tell your doctor if you are pregnant, think you may be pregnant or are planning to have a baby. Influenza vaccines may be given in any trimester of pregnancy. &lt;/span&gt;&lt;/p&gt;\n&lt;p class=&quot;SmPC-PLtext&quot;&gt;&lt;span lang=&quot;EN-GB&quot; style=&quot;color: windowtext;&quot;&gt;\u00a0&lt;/span&gt;&lt;/p&gt;\n&lt;p class=&quot;SmPC-PLtext&quot;&gt;&lt;u&gt;&lt;span lang=&quot;EN-GB&quot; style=&quot;color: windowtext;&quot;&gt;Breast-feeding:&lt;/span&gt;&lt;/u&gt;&lt;/p&gt;\n&lt;p class=&quot;SmPC-PLtext&quot;&gt;&lt;span lang=&quot;EN-GB&quot; style=&quot;color: windowtext;&quot;&gt;Use of &lt;/span&gt;&lt;span style=&quot;mso-fareast-font-family: 'MS Mincho'; color: windowtext; mso-ansi-language: EN-US;&quot;&gt;Flucelvax Tetra&lt;/span&gt;&lt;span style=&quot;mso-fareast-font-family: 'MS Mincho'; mso-ansi-language: EN-US;&quot;&gt; &lt;/span&gt;&lt;span lang=&quot;EN-GB&quot; style=&quot;color: windowtext;&quot;&gt;during breast-feeding has not been studied. Flucelvax Tetra may be given during breast-feeding.&lt;/span&gt;&lt;/p&gt;</div>"
                }
              },
              {
                "id" : "1086c5c0-25e0-ed11-a7c7-000d3aaa0c5f",
                "title" : "Driving and using machines",
                "code" : {
                  "coding" : [{
                    "system" : "https://spor.ema.europa.eu/rmswi/#/lists/200000029659/terms/200000029903",
                    "code" : "200000029903",
                    "display" : "Driving and using machines"
                  }]
                },
                "text" : {
                  "status" : "generated",
                  "div" : "<div xmlns=\"http://www.w3.org/1999/xhtml\">&lt;p class=&quot;SmPC-PLtext&quot;&gt;&lt;span style=&quot;mso-fareast-font-family: 'MS Mincho'; color: windowtext; mso-ansi-language: EN-US;&quot;&gt;Flucelvax Tetra&lt;/span&gt;&lt;span style=&quot;mso-fareast-font-family: 'MS Mincho'; mso-ansi-language: EN-US;&quot;&gt; &lt;/span&gt;&lt;span lang=&quot;EN-GB&quot; style=&quot;color: windowtext;&quot;&gt;has no or negligible effect on your ability to drive and use machines.&lt;/span&gt;&lt;/p&gt;</div>"
                }
              },
              {
                "id" : "1a86c5c0-25e0-ed11-a7c7-000d3aaa0c5f",
                "title" : "X contains {name the excipient(s)}",
                "code" : {
                  "coding" : [{
                    "system" : "https://spor.ema.europa.eu/rmswi/#/lists/200000029659/terms/200000029904",
                    "code" : "200000029904",
                    "display" : "X contains {name the excipient(s)}"
                  }]
                },
                "text" : {
                  "status" : "generated",
                  "div" : "<div xmlns=\"http://www.w3.org/1999/xhtml\"/>"
                }
              }]
            },
            {
              "id" : "4486c5c0-25e0-ed11-a7c7-000d3aaa0c5f",
              "title" : "3. How Flucelvax Tetra is given",
              "code" : {
                "coding" : [{
                  "system" : "https://spor.ema.europa.eu/rmswi/#/lists/200000029659/terms/200000029905",
                  "code" : "200000029905",
                  "display" : "3. How to <take> <use> X"
                }]
              },
              "text" : {
                "status" : "generated",
                "div" : "<div xmlns=\"http://www.w3.org/1999/xhtml\">&lt;p class=&quot;SmPC-PLtext&quot;&gt;&lt;span style=&quot;mso-fareast-font-family: 'MS Mincho'; color: windowtext; mso-ansi-language: EN-US;&quot;&gt;Flucelvax Tetra&lt;/span&gt;&lt;span style=&quot;mso-fareast-font-family: 'MS Mincho'; mso-ansi-language: EN-US;&quot;&gt; &lt;/span&gt;&lt;span lang=&quot;EN-GB&quot; style=&quot;color: windowtext;&quot;&gt;is given to you by your doctor or nurse as an injection into the muscle at the top of the upper arm (deltoid muscle).&lt;/span&gt;&lt;/p&gt;\n&lt;p class=&quot;SmPC-PLtext&quot;&gt;&lt;span lang=&quot;EN-GB&quot; style=&quot;color: windowtext;&quot;&gt;\u00a0&lt;/span&gt;&lt;u&gt;&lt;span lang=&quot;EN-GB&quot; style=&quot;color: windowtext;&quot;&gt;Adults and children from 2 years of age:&lt;/span&gt;&lt;/u&gt;&lt;/p&gt;\n&lt;p class=&quot;SmPC-PLtext&quot;&gt;&lt;span lang=&quot;EN-GB&quot; style=&quot;color: windowtext;&quot;&gt;One dose of 0.5 ml&lt;/span&gt;&lt;/p&gt;\n&lt;p class=&quot;SmPC-PLtext&quot;&gt;&lt;span lang=&quot;EN-GB&quot; style=&quot;color: windowtext;&quot;&gt;If your child is younger than 9 years of age and has not been previously vaccinated against flu, a second dose should be given after at least 4 weeks.&lt;/span&gt;&lt;/p&gt;</div>"
              },
              "section" : [{
                "id" : "5686c5c0-25e0-ed11-a7c7-000d3aaa0c5f",
                "title" : "Use in children <and adolescents>",
                "code" : {
                  "coding" : [{
                    "system" : "https://spor.ema.europa.eu/rmswi/#/lists/200000029659/terms/200000029906",
                    "code" : "200000029906",
                    "display" : "Use in children <and adolescents>"
                  }]
                },
                "text" : {
                  "status" : "generated",
                  "div" : "<div xmlns=\"http://www.w3.org/1999/xhtml\"/>"
                }
              }]
            },
            {
              "id" : "8286c5c0-25e0-ed11-a7c7-000d3aaa0c5f",
              "title" : "4. Possible side effects",
              "code" : {
                "coding" : [{
                  "system" : "https://spor.ema.europa.eu/rmswi/#/lists/200000029659/terms/200000029910",
                  "code" : "200000029910",
                  "display" : "4. Possible side effects"
                }]
              },
              "text" : {
                "status" : "generated",
                "div" : "<div xmlns=\"http://www.w3.org/1999/xhtml\">&lt;p class=&quot;MsoNormal&quot; style=&quot;margin-right: -1.45pt; line-height: normal; mso-list: skip; tab-stops: 36.0pt;&quot;&gt;&lt;span lang=&quot;EN-GB&quot; style=&quot;mso-bidi-font-size: 11.0pt; mso-no-proof: yes;&quot;&gt;Like all medicines, this medicine can cause side effects, although not everybody gets them.&lt;/span&gt;&lt;/p&gt;\n&lt;p class=&quot;SmPC-PLtext&quot;&gt;&lt;span lang=&quot;EN-GB&quot; style=&quot;color: windowtext;&quot;&gt;The following side effects have been reported during clinical trials and during general use:&lt;/span&gt;&lt;/p&gt;\n&lt;p class=&quot;SmPC-PLtext&quot;&gt;&lt;span lang=&quot;EN-GB&quot; style=&quot;color: windowtext;&quot;&gt;\u00a0&lt;/span&gt;&lt;/p&gt;\n&lt;p class=&quot;SmPC-PLtext&quot; style=&quot;page-break-after: avoid;&quot;&gt;&lt;strong style=&quot;mso-bidi-font-weight: normal;&quot;&gt;&lt;span lang=&quot;EN-GB&quot; style=&quot;color: windowtext;&quot;&gt;Very serious side effects&lt;/span&gt;&lt;/strong&gt;&lt;/p&gt;\n&lt;p class=&quot;SmPC-PLtext&quot;&gt;&lt;span lang=&quot;EN-GB&quot; style=&quot;color: windowtext;&quot;&gt;Tell your doctor immediately or go to the casualty department at your nearest hospital if you experience the following side effect – you may need urgent medical attention or hospitalisation:&lt;/span&gt;&lt;/p&gt;\n&lt;p class=&quot;SmPC-PLtext&quot;&gt;&lt;span lang=&quot;EN-GB&quot; style=&quot;color: windowtext;&quot;&gt;\u00a0&lt;/span&gt;&lt;/p&gt;\n&lt;p class=&quot;SmPC-PLtext&quot; style=&quot;margin-left: 14.2pt; text-indent: -14.2pt; mso-list: l0 level1 lfo1; tab-stops: 36.0pt;&quot;&gt;&lt;!-- [if !supportLists]--&gt;&lt;span lang=&quot;EN-GB&quot; style=&quot;color: windowtext;&quot;&gt;&lt;span style=&quot;mso-list: Ignore;&quot;&gt;•&lt;span style=&quot;font: 7.0pt 'Times New Roman';&quot;&gt;\u00a0\u00a0\u00a0\u00a0\u00a0 &lt;/span&gt;&lt;/span&gt;&lt;/span&gt;&lt;!--[endif]--&gt;&lt;span lang=&quot;EN-GB&quot; style=&quot;color: windowtext;&quot;&gt;Difficulty in breathing, dizziness, a weak and rapid pulse and skin rash which are symptoms of an anaphylactic reaction (a very severe allergic reaction)&lt;/span&gt;&lt;/p&gt;\n&lt;p class=&quot;SmPC-PLtext&quot; style=&quot;tab-stops: 36.0pt;&quot;&gt;&lt;span lang=&quot;EN-GB&quot; style=&quot;color: windowtext;&quot;&gt;\u00a0&lt;/span&gt;&lt;/p&gt;\n&lt;p class=&quot;SmPC-PLtext&quot; style=&quot;page-break-after: avoid;&quot;&gt;&lt;strong style=&quot;mso-bidi-font-weight: normal;&quot;&gt;&lt;span lang=&quot;EN-GB&quot; style=&quot;color: windowtext;&quot;&gt;Serious side effects&lt;/span&gt;&lt;/strong&gt;&lt;/p&gt;\n&lt;p class=&quot;SmPC-PLtext&quot;&gt;&lt;span lang=&quot;EN-GB&quot; style=&quot;color: windowtext;&quot;&gt;Tell your doctor immediately if you experience any of the following side effects – you may need medical attention:&lt;/span&gt;&lt;/p&gt;\n&lt;p class=&quot;SmPC-PLtext&quot;&gt;&lt;span lang=&quot;EN-GB&quot; style=&quot;color: windowtext;&quot;&gt;\u00a0&lt;/span&gt;&lt;/p&gt;\n&lt;p class=&quot;SmPC-PLtext&quot; style=&quot;margin-left: 14.2pt; text-indent: -14.2pt; mso-list: l0 level1 lfo1; tab-stops: 36.0pt;&quot;&gt;&lt;!-- [if !supportLists]--&gt;&lt;span lang=&quot;EN-GB&quot; style=&quot;color: windowtext;&quot;&gt;&lt;span style=&quot;mso-list: Ignore;&quot;&gt;•&lt;span style=&quot;font: 7.0pt 'Times New Roman';&quot;&gt;\u00a0\u00a0\u00a0\u00a0\u00a0 &lt;/span&gt;&lt;/span&gt;&lt;/span&gt;&lt;!--[endif]--&gt;&lt;span lang=&quot;EN-GB&quot; style=&quot;color: windowtext;&quot;&gt;You feel weak, you have difficulty moving around or you experience numbness or tingling in your limbs. These can be symptoms of &lt;span style=&quot;mso-spacerun: yes;&quot;&gt;\u00a0&lt;/span&gt;Guillain-Barré syndrome (GBS), an autoimmune disease caused by your body’s own immune system.&lt;/span&gt;&lt;/p&gt;\n&lt;p class=&quot;SmPC-PLtext&quot; style=&quot;margin-left: 14.2pt; text-indent: -14.2pt; mso-list: l0 level1 lfo1; tab-stops: 36.0pt;&quot;&gt;&lt;!-- [if !supportLists]--&gt;&lt;span lang=&quot;EN-GB&quot; style=&quot;color: windowtext;&quot;&gt;&lt;span style=&quot;mso-list: Ignore;&quot;&gt;•&lt;span style=&quot;font: 7.0pt 'Times New Roman';&quot;&gt;\u00a0\u00a0\u00a0\u00a0\u00a0 &lt;/span&gt;&lt;/span&gt;&lt;/span&gt;&lt;!--[endif]--&gt;&lt;span lang=&quot;EN-GB&quot; style=&quot;color: windowtext;&quot;&gt;Extensive swelling of injected limb&lt;/span&gt;&lt;/p&gt;\n&lt;p class=&quot;SmPC-PLtext&quot;&gt;&lt;span lang=&quot;EN-GB&quot; style=&quot;color: windowtext;&quot;&gt;\u00a0&lt;/span&gt;&lt;/p&gt;\n&lt;p class=&quot;SmPC-PLtext&quot;&gt;&lt;strong style=&quot;mso-bidi-font-weight: normal;&quot;&gt;&lt;span lang=&quot;EN-GB&quot; style=&quot;color: windowtext;&quot;&gt;Mild side effects&lt;/span&gt;&lt;/strong&gt;&lt;/p&gt;\n&lt;p class=&quot;SmPC-PLtext&quot;&gt;&lt;u&gt;&lt;span lang=&quot;EN-GB&quot; style=&quot;color: windowtext;&quot;&gt;Very common&lt;/span&gt;&lt;/u&gt;&lt;span lang=&quot;EN-GB&quot; style=&quot;color: windowtext;&quot;&gt; (may affect more than 1 in 10 people):&lt;/span&gt;&lt;/p&gt;\n&lt;p class=&quot;SmPC-PLtext&quot; style=&quot;margin-left: 14.2pt; text-indent: -14.2pt; mso-list: l0 level1 lfo1; tab-stops: 36.0pt;&quot;&gt;&lt;!-- [if !supportLists]--&gt;&lt;span lang=&quot;EN-GB&quot; style=&quot;color: windowtext;&quot;&gt;&lt;span style=&quot;mso-list: Ignore;&quot;&gt;•&lt;span style=&quot;font: 7.0pt 'Times New Roman';&quot;&gt;\u00a0\u00a0\u00a0\u00a0\u00a0 &lt;/span&gt;&lt;/span&gt;&lt;/span&gt;&lt;!--[endif]--&gt;&lt;span lang=&quot;EN-GB&quot; style=&quot;color: windowtext;&quot;&gt;Injection site pain, bruising, reddening and hardening or swelling at the site of the injection&lt;/span&gt;&lt;/p&gt;\n&lt;p class=&quot;SmPC-PLtext&quot; style=&quot;margin-left: 14.2pt; text-indent: -14.2pt; mso-list: l0 level1 lfo1; tab-stops: 36.0pt;&quot;&gt;&lt;!-- [if !supportLists]--&gt;&lt;span lang=&quot;EN-GB&quot; style=&quot;color: windowtext;&quot;&gt;&lt;span style=&quot;mso-list: Ignore;&quot;&gt;•&lt;span style=&quot;font: 7.0pt 'Times New Roman';&quot;&gt;\u00a0\u00a0\u00a0\u00a0\u00a0 &lt;/span&gt;&lt;/span&gt;&lt;/span&gt;&lt;!--[endif]--&gt;&lt;span lang=&quot;EN-GB&quot; style=&quot;color: windowtext;&quot;&gt;Headache&lt;/span&gt;&lt;/p&gt;\n&lt;p class=&quot;SmPC-PLtext&quot; style=&quot;margin-left: 14.2pt; text-indent: -14.2pt; mso-list: l0 level1 lfo1; tab-stops: 36.0pt;&quot;&gt;&lt;!-- [if !supportLists]--&gt;&lt;span lang=&quot;EN-GB&quot; style=&quot;color: windowtext;&quot;&gt;&lt;span style=&quot;mso-list: Ignore;&quot;&gt;•&lt;span style=&quot;font: 7.0pt 'Times New Roman';&quot;&gt;\u00a0\u00a0\u00a0\u00a0\u00a0 &lt;/span&gt;&lt;/span&gt;&lt;/span&gt;&lt;!--[endif]--&gt;&lt;span lang=&quot;EN-GB&quot; style=&quot;color: windowtext;&quot;&gt;Muscle pain &lt;span style=&quot;mso-spacerun: yes;&quot;&gt;\u00a0&lt;/span&gt;&lt;/span&gt;&lt;/p&gt;\n&lt;p class=&quot;SmPC-PLtext&quot; style=&quot;margin-left: 14.2pt; text-indent: -14.2pt; mso-list: l0 level1 lfo1; tab-stops: 36.0pt;&quot;&gt;&lt;!-- [if !supportLists]--&gt;&lt;span lang=&quot;EN-GB&quot; style=&quot;color: windowtext;&quot;&gt;&lt;span style=&quot;mso-list: Ignore;&quot;&gt;•&lt;span style=&quot;font: 7.0pt 'Times New Roman';&quot;&gt;\u00a0\u00a0\u00a0\u00a0\u00a0 &lt;/span&gt;&lt;/span&gt;&lt;/span&gt;&lt;!--[endif]--&gt;&lt;span lang=&quot;EN-GB&quot; style=&quot;color: windowtext;&quot;&gt;Tiredness &lt;/span&gt;&lt;/p&gt;\n&lt;p class=&quot;SmPC-PLtext&quot; style=&quot;margin-left: 14.2pt; text-indent: -14.2pt; mso-list: l0 level1 lfo1; tab-stops: 36.0pt;&quot;&gt;&lt;!-- [if !supportLists]--&gt;&lt;span lang=&quot;EN-GB&quot; style=&quot;color: windowtext;&quot;&gt;&lt;span style=&quot;mso-list: Ignore;&quot;&gt;•&lt;span style=&quot;font: 7.0pt 'Times New Roman';&quot;&gt;\u00a0\u00a0\u00a0\u00a0\u00a0 &lt;/span&gt;&lt;/span&gt;&lt;/span&gt;&lt;!--[endif]--&gt;&lt;span lang=&quot;EN-GB&quot; style=&quot;color: windowtext;&quot;&gt;Loss of appetite&lt;/span&gt;&lt;/p&gt;\n&lt;p class=&quot;SmPC-PLtext&quot; style=&quot;margin-left: 14.2pt; text-indent: -14.2pt; mso-list: l0 level1 lfo1; tab-stops: 36.0pt;&quot;&gt;&lt;!-- [if !supportLists]--&gt;&lt;span lang=&quot;EN-GB&quot; style=&quot;color: windowtext;&quot;&gt;&lt;span style=&quot;mso-list: Ignore;&quot;&gt;•&lt;span style=&quot;font: 7.0pt 'Times New Roman';&quot;&gt;\u00a0\u00a0\u00a0\u00a0\u00a0 &lt;/span&gt;&lt;/span&gt;&lt;/span&gt;&lt;!--[endif]--&gt;&lt;span lang=&quot;EN-GB&quot; style=&quot;color: windowtext;&quot;&gt;Irritability (only reported in children from 2 to &lt; 6 years)&lt;/span&gt;&lt;/p&gt;\n&lt;p class=&quot;SmPC-PLtext&quot; style=&quot;margin-left: 14.2pt; text-indent: -14.2pt; mso-list: l0 level1 lfo1; tab-stops: 36.0pt;&quot;&gt;&lt;!-- [if !supportLists]--&gt;&lt;span lang=&quot;EN-GB&quot; style=&quot;color: windowtext;&quot;&gt;&lt;span style=&quot;mso-list: Ignore;&quot;&gt;•&lt;span style=&quot;font: 7.0pt 'Times New Roman';&quot;&gt;\u00a0\u00a0\u00a0\u00a0\u00a0 &lt;/span&gt;&lt;/span&gt;&lt;/span&gt;&lt;!--[endif]--&gt;&lt;span lang=&quot;EN-GB&quot; style=&quot;color: windowtext;&quot;&gt;Sleepiness (only reported in children 2 to &lt; 6 years)&lt;/span&gt;&lt;/p&gt;\n&lt;p class=&quot;SmPC-PLtext&quot;&gt;&lt;span lang=&quot;EN-GB&quot; style=&quot;color: windowtext;&quot;&gt;Hardening or swelling at the site of the injection, headache, muscle pain, and tiredness were common in the elderly.&lt;/span&gt;&lt;/p&gt;\n&lt;p class=&quot;SmPC-PLtext&quot;&gt;&lt;span lang=&quot;EN-GB&quot; style=&quot;color: windowtext;&quot;&gt;Bruising at the site of the injection was common in adults, eldery and children 9 to &lt; 18 years.&lt;/span&gt;&lt;/p&gt;\n&lt;p class=&quot;SmPC-PLtext&quot;&gt;&lt;span lang=&quot;EN-GB&quot; style=&quot;color: windowtext;&quot;&gt;Headache was common in the elderly.&lt;/span&gt;&lt;/p&gt;\n&lt;p class=&quot;SmPC-PLtext&quot;&gt;&lt;span lang=&quot;EN-GB&quot; style=&quot;color: windowtext;&quot;&gt;Loss of appetite was common in adults, eldery and children 9 to &lt; 18 years.&lt;/span&gt;&lt;/p&gt;\n&lt;p class=&quot;SmPC-PLtext&quot;&gt;&lt;span lang=&quot;EN-GB&quot; style=&quot;color: windowtext;&quot;&gt;\u00a0&lt;/span&gt;&lt;/p&gt;\n&lt;p class=&quot;SmPC-PLtext&quot; style=&quot;page-break-after: avoid;&quot;&gt;&lt;u&gt;&lt;span lang=&quot;EN-GB&quot; style=&quot;color: windowtext;&quot;&gt;Common&lt;/span&gt;&lt;/u&gt;&lt;span lang=&quot;EN-GB&quot; style=&quot;color: windowtext;&quot;&gt; (may affect up to 1 in 10 people):&lt;/span&gt;&lt;/p&gt;\n&lt;p class=&quot;SmPC-PLtext&quot; style=&quot;margin-left: 14.2pt; text-indent: -14.2pt; mso-list: l0 level1 lfo1; tab-stops: 36.0pt;&quot;&gt;&lt;!-- [if !supportLists]--&gt;&lt;span lang=&quot;EN-GB&quot; style=&quot;color: windowtext;&quot;&gt;&lt;span style=&quot;mso-list: Ignore;&quot;&gt;•&lt;span style=&quot;font: 7.0pt 'Times New Roman';&quot;&gt;\u00a0\u00a0\u00a0\u00a0\u00a0 &lt;/span&gt;&lt;/span&gt;&lt;/span&gt;&lt;!--[endif]--&gt;&lt;span lang=&quot;EN-GB&quot; style=&quot;color: windowtext;&quot;&gt;Nausea, vomiting, diarrhoea &lt;/span&gt;&lt;/p&gt;\n&lt;p class=&quot;SmPC-PLtext&quot; style=&quot;margin-left: 14.2pt; text-indent: -14.2pt; mso-list: l0 level1 lfo1; tab-stops: 36.0pt;&quot;&gt;&lt;!-- [if !supportLists]--&gt;&lt;span lang=&quot;EN-GB&quot; style=&quot;color: windowtext;&quot;&gt;&lt;span style=&quot;mso-list: Ignore;&quot;&gt;•&lt;span style=&quot;font: 7.0pt 'Times New Roman';&quot;&gt;\u00a0\u00a0\u00a0\u00a0\u00a0 &lt;/span&gt;&lt;/span&gt;&lt;/span&gt;&lt;!--[endif]--&gt;&lt;span lang=&quot;EN-GB&quot; style=&quot;color: windowtext;&quot;&gt;Joint pain&lt;/span&gt;&lt;/p&gt;\n&lt;p class=&quot;SmPC-PLtext&quot; style=&quot;margin-left: 14.2pt; text-indent: -14.2pt; mso-list: l0 level1 lfo1; tab-stops: 36.0pt;&quot;&gt;&lt;!-- [if !supportLists]--&gt;&lt;span lang=&quot;EN-GB&quot; style=&quot;color: windowtext;&quot;&gt;&lt;span style=&quot;mso-list: Ignore;&quot;&gt;•&lt;span style=&quot;font: 7.0pt 'Times New Roman';&quot;&gt;\u00a0\u00a0\u00a0\u00a0\u00a0 &lt;/span&gt;&lt;/span&gt;&lt;/span&gt;&lt;!--[endif]--&gt;&lt;span lang=&quot;EN-GB&quot; style=&quot;color: windowtext;&quot;&gt;Shivering&lt;/span&gt;&lt;/p&gt;\n&lt;p class=&quot;SmPC-PLtext&quot; style=&quot;margin-left: 14.2pt; text-indent: -14.2pt; mso-list: l0 level1 lfo1; tab-stops: 36.0pt;&quot;&gt;&lt;!-- [if !supportLists]--&gt;&lt;span lang=&quot;EN-GB&quot; style=&quot;color: windowtext;&quot;&gt;&lt;span style=&quot;mso-list: Ignore;&quot;&gt;•&lt;span style=&quot;font: 7.0pt 'Times New Roman';&quot;&gt;\u00a0\u00a0\u00a0\u00a0\u00a0 &lt;/span&gt;&lt;/span&gt;&lt;/span&gt;&lt;!--[endif]--&gt;&lt;span lang=&quot;EN-GB&quot; style=&quot;color: windowtext;&quot;&gt;Change in eating habits (only reported in children from 2 to &lt; 6 years)&lt;/span&gt;&lt;/p&gt;\n&lt;p class=&quot;SmPC-PLtext&quot; style=&quot;margin-left: 14.2pt; text-indent: -14.2pt; mso-list: l0 level1 lfo1; tab-stops: 36.0pt;&quot;&gt;&lt;!-- [if !supportLists]--&gt;&lt;span lang=&quot;EN-GB&quot; style=&quot;color: windowtext;&quot;&gt;&lt;span style=&quot;mso-list: Ignore;&quot;&gt;•&lt;span style=&quot;font: 7.0pt 'Times New Roman';&quot;&gt;\u00a0\u00a0\u00a0\u00a0\u00a0 &lt;/span&gt;&lt;/span&gt;&lt;/span&gt;&lt;!--[endif]--&gt;&lt;span lang=&quot;EN-GB&quot; style=&quot;color: windowtext;&quot;&gt;Fever (&lt;u&gt;&gt;&lt;/u&gt; 38°C)&lt;/span&gt;&lt;/p&gt;\n&lt;p class=&quot;SmPC-PLtext&quot;&gt;&lt;span lang=&quot;EN-GB&quot; style=&quot;color: windowtext;&quot;&gt;Vomiting was uncommon in the elderly.&lt;/span&gt;&lt;/p&gt;\n&lt;p class=&quot;SmPC-PLtext&quot;&gt;&lt;span lang=&quot;EN-GB&quot; style=&quot;color: windowtext;&quot;&gt;Fever was uncommon in adults and the elderly.&lt;/span&gt;&lt;/p&gt;\n&lt;p class=&quot;SmPC-PLtext&quot;&gt;&lt;span lang=&quot;EN-GB&quot; style=&quot;color: windowtext;&quot;&gt;\u00a0&lt;/span&gt;&lt;/p&gt;\n&lt;p class=&quot;SmPC-PLtext&quot;&gt;&lt;u&gt;&lt;span lang=&quot;EN-GB&quot; style=&quot;color: windowtext;&quot;&gt;Not known&lt;/span&gt;&lt;/u&gt;&lt;span lang=&quot;EN-GB&quot; style=&quot;color: windowtext;&quot;&gt; (frequency cannot be estimated from the available data):&lt;/span&gt;&lt;/p&gt;\n&lt;p class=&quot;SmPC-PLtext&quot; style=&quot;margin-left: 14.2pt; text-indent: -14.2pt; mso-list: l0 level1 lfo1; tab-stops: 36.0pt;&quot;&gt;&lt;!-- [if !supportLists]--&gt;&lt;span lang=&quot;EN-GB&quot; style=&quot;color: windowtext;&quot;&gt;&lt;span style=&quot;mso-list: Ignore;&quot;&gt;•&lt;span style=&quot;font: 7.0pt 'Times New Roman';&quot;&gt;\u00a0\u00a0\u00a0\u00a0\u00a0 &lt;/span&gt;&lt;/span&gt;&lt;/span&gt;&lt;!--[endif]--&gt;&lt;span lang=&quot;EN-GB&quot; style=&quot;color: windowtext;&quot;&gt;Numbness and tingling sensation (paraesthesia)&lt;/span&gt;&lt;/p&gt;\n&lt;p class=&quot;SmPC-PLtext&quot; style=&quot;margin-left: 14.2pt; text-indent: -14.2pt; mso-list: l0 level1 lfo1; tab-stops: 36.0pt;&quot;&gt;&lt;!-- [if !supportLists]--&gt;&lt;span lang=&quot;EN-GB&quot; style=&quot;color: windowtext;&quot;&gt;&lt;span style=&quot;mso-list: Ignore;&quot;&gt;•&lt;span style=&quot;font: 7.0pt 'Times New Roman';&quot;&gt;\u00a0\u00a0\u00a0\u00a0\u00a0 &lt;/span&gt;&lt;/span&gt;&lt;/span&gt;&lt;!--[endif]--&gt;&lt;span lang=&quot;EN-GB&quot; style=&quot;color: windowtext;&quot;&gt;Generalised skin reactions including itching, bumps on the skin (pruritis, urticaria) or non-specific rash &lt;/span&gt;&lt;/p&gt;</div>"
              },
              "section" : [{
                "id" : "9d86c5c0-25e0-ed11-a7c7-000d3aaa0c5f",
                "title" : "Reporting of side effects",
                "code" : {
                  "coding" : [{
                    "system" : "https://spor.ema.europa.eu/rmswi/#/lists/200000029659/terms/200000029912",
                    "code" : "200000029912",
                    "display" : "Reporting of side effects"
                  }]
                },
                "text" : {
                  "status" : "generated",
                  "div" : "<div xmlns=\"http://www.w3.org/1999/xhtml\">&lt;p class=&quot;BodytextAgency&quot; style=&quot;margin-bottom: 0cm; line-height: normal;&quot;&gt;&lt;span lang=&quot;EN-GB&quot; style=&quot;font-size: 11.0pt; font-family: 'Times New Roman',serif; mso-no-proof: yes;&quot;&gt;If you get any side effects, talk to your doctor, pharmacist or nurse.&lt;/span&gt;&lt;span lang=&quot;EN-GB&quot; style=&quot;font-size: 11.0pt; font-family: 'Times New Roman',serif;&quot;&gt; This includes any possible &lt;span style=&quot;mso-no-proof: yes;&quot;&gt;side effects not listed in this leaflet.&lt;/span&gt;&lt;/span&gt;&lt;span lang=&quot;EN-GB&quot; style=&quot;font-size: 11.0pt;&quot;&gt; &lt;/span&gt;&lt;span lang=&quot;EN-GB&quot; style=&quot;font-size: 11.0pt; font-family: 'Times New Roman',serif;&quot;&gt;You can also report side effects directly via &lt;/span&gt;&lt;span lang=&quot;EN-GB&quot; style=&quot;font-size: 11.0pt; font-family: 'Times New Roman',serif; mso-bidi-font-family: Verdana; background: lightgrey; mso-highlight: lightgrey;&quot;&gt;the national reporting system listed in &lt;/span&gt;&lt;span lang=&quot;EN-GB&quot;&gt;&lt;a href=&quot;http://www.ema.europa.eu/docs/en_GB/document_library/Template_or_form/2013/03/WC500139752.doc&quot;&gt;&lt;span style=&quot;font-size: 11.0pt; font-family: 'Times New Roman',serif; background: lightgrey; mso-highlight: lightgrey;&quot;&gt;Appendix V&lt;/span&gt;&lt;/a&gt;&lt;/span&gt;&lt;span lang=&quot;EN-GB&quot; style=&quot;font-size: 11.0pt; font-family: 'Times New Roman',serif;&quot;&gt;.&lt;/span&gt;&lt;span lang=&quot;EN-GB&quot; style=&quot;font-size: 11.0pt; font-family: 'Times New Roman',serif; mso-bidi-font-family: Verdana;&quot;&gt;* By reporting side effects, you can help provide more information on the safety of this medicine.&lt;/span&gt;&lt;/p&gt;</div>"
                }
              }]
            },
            {
              "id" : "a886c5c0-25e0-ed11-a7c7-000d3aaa0c5f",
              "title" : "5. How to store Flucelvax Tetra",
              "code" : {
                "coding" : [{
                  "system" : "https://spor.ema.europa.eu/rmswi/#/lists/200000029659/terms/200000029913",
                  "code" : "200000029913",
                  "display" : "5. How to store X"
                }]
              },
              "text" : {
                "status" : "generated",
                "div" : "<div xmlns=\"http://www.w3.org/1999/xhtml\">&lt;p class=&quot;MsoNormal&quot; style=&quot;margin-right: -.1pt; line-height: normal; mso-list: skip; tab-stops: 36.0pt;&quot;&gt;&lt;span lang=&quot;EN-GB&quot; style=&quot;mso-bidi-font-size: 11.0pt; mso-no-proof: yes;&quot;&gt;Keep this\u00a0&lt;span class=&quot;SmPC-PLtextChar&quot;&gt;vaccine&lt;/span&gt; out of the sight and reach of children.&lt;/span&gt;&lt;/p&gt;\n&lt;p class=&quot;MsoNormal&quot; style=&quot;margin-right: -.1pt; line-height: normal; mso-list: skip; tab-stops: 36.0pt;&quot;&gt;&lt;span lang=&quot;EN-GB&quot; style=&quot;mso-bidi-font-size: 11.0pt; mso-no-proof: yes;&quot;&gt;\u00a0&lt;/span&gt;&lt;/p&gt;\n&lt;p class=&quot;SmPC-PLtext&quot;&gt;&lt;span lang=&quot;EN-GB&quot; style=&quot;color: windowtext;&quot;&gt;Store in a refrigerator (2 °C\u00a0to\u00a08 °C). Do not freeze.&lt;/span&gt;&lt;/p&gt;\n&lt;p class=&quot;SmPC-PLtext&quot;&gt;&lt;span lang=&quot;EN-GB&quot; style=&quot;color: windowtext;&quot;&gt;Keep the pre-filled syringe in the outer carton in order to protect from light.&lt;/span&gt;&lt;/p&gt;\n&lt;p class=&quot;MsoNormal&quot; style=&quot;margin-right: -.1pt; line-height: normal; mso-list: skip; tab-stops: 36.0pt;&quot;&gt;&lt;span lang=&quot;EN-GB&quot; style=&quot;mso-bidi-font-size: 11.0pt; mso-no-proof: yes;&quot;&gt;\u00a0&lt;/span&gt;&lt;/p&gt;\n&lt;p class=&quot;MsoNormal&quot; style=&quot;margin-right: -.1pt; line-height: normal; mso-list: skip; tab-stops: 36.0pt;&quot;&gt;&lt;span lang=&quot;EN-GB&quot; style=&quot;mso-bidi-font-size: 11.0pt; mso-no-proof: yes;&quot;&gt;Do not use this &lt;span class=&quot;SmPC-PLtextChar&quot;&gt;vaccine&lt;/span&gt; after the expiry date which is stated on the label and carton after &lt;span class=&quot;SmPC-PLtextChar&quot;&gt;EXP&lt;/span&gt;. The expiry date refers to the last day of that month.&lt;/span&gt;&lt;/p&gt;\n&lt;p class=&quot;MsoNormal&quot; style=&quot;margin-right: -.1pt; line-height: normal; mso-list: skip; tab-stops: 36.0pt;&quot;&gt;&lt;span lang=&quot;EN-GB&quot; style=&quot;mso-bidi-font-size: 11.0pt; mso-no-proof: yes;&quot;&gt;\u00a0&lt;/span&gt;&lt;/p&gt;\n&lt;p class=&quot;MsoNormal&quot; style=&quot;margin-right: -.1pt; line-height: normal; mso-list: skip; tab-stops: 36.0pt;&quot;&gt;&lt;span lang=&quot;EN-GB&quot; style=&quot;mso-bidi-font-size: 11.0pt; mso-no-proof: yes;&quot;&gt;Do not throw away any medicines via wastewater or household waste. Ask your pharmacist how to throw away medicines you no longer use. These measures will help protect the environment.&lt;/span&gt;&lt;/p&gt;</div>"
              }
            },
            {
              "id" : "b486c5c0-25e0-ed11-a7c7-000d3aaa0c5f",
              "title" : "6. Contents of the pack and other information",
              "code" : {
                "coding" : [{
                  "system" : "https://spor.ema.europa.eu/rmswi/#/lists/200000029659/terms/200000029914",
                  "code" : "200000029914",
                  "display" : "6. Contents of the pack and other information"
                }]
              },
              "text" : {
                "status" : "generated",
                "div" : "<div xmlns=\"http://www.w3.org/1999/xhtml\"/>"
              },
              "section" : [{
                "id" : "c086c5c0-25e0-ed11-a7c7-000d3aaa0c5f",
                "title" : "What Flucelvax Tetra contains",
                "code" : {
                  "coding" : [{
                    "system" : "https://spor.ema.europa.eu/rmswi/#/lists/200000029659/terms/200000029915",
                    "code" : "200000029915",
                    "display" : "What X contains"
                  }]
                },
                "text" : {
                  "status" : "generated",
                  "div" : "<div xmlns=\"http://www.w3.org/1999/xhtml\">&lt;p class=&quot;MsoNormal&quot; style=&quot;margin-right: -.1pt; line-height: normal; page-break-after: avoid; tab-stops: 36.0pt;&quot;&gt;&lt;span lang=&quot;EN-GB&quot; style=&quot;mso-bidi-font-size: 11.0pt;&quot;&gt;The active substances are&lt;/span&gt;&lt;span lang=&quot;EN-GB&quot; style=&quot;mso-bidi-font-size: 11.0pt; mso-ansi-language: EN-US; mso-no-proof: yes;&quot;&gt; &lt;/span&gt;&lt;span class=&quot;SmPC-PLtextChar&quot;&gt;&lt;span lang=&quot;EN-GB&quot;&gt;influenza virus surface antigens (haemagglutinin and neuraminidase), inactivated, of the following strains*:&lt;/span&gt;&lt;/span&gt;&lt;/p&gt;\n&lt;p class=&quot;SmPC-PLtext&quot;&gt;&lt;span style=&quot;color: windowtext; mso-ansi-language: EN-US;&quot;&gt;\u00a0&lt;/span&gt;&lt;/p&gt;\n&lt;p class=&quot;MsoNormal&quot; style=&quot;margin-bottom: 6.0pt; line-height: normal; tab-stops: 10.0cm;&quot;&gt;&lt;span lang=&quot;EN-GB&quot; style=&quot;mso-fareast-language: DE;&quot;&gt;A/Wisconsin/588/2019 (H1N1)pdm09-like strain (A/Delaware/55/2019 CVR-45) &lt;/span&gt;&lt;span lang=&quot;EN-GB&quot; style=&quot;mso-bidi-font-size: 11.0pt; mso-fareast-language: DE;&quot;&gt;15\u00a0micrograms HA**&lt;/span&gt;&lt;/p&gt;\n&lt;p class=&quot;MsoNormal&quot; style=&quot;margin-bottom: 6.0pt; line-height: normal; tab-stops: 10.0cm;&quot;&gt;&lt;span lang=&quot;EN-GB&quot; style=&quot;mso-fareast-language: DE;&quot;&gt;A/Darwin/6/2021 (H3N2)-like strain (A/Darwin/11/2021, wild type) &lt;/span&gt;&lt;span lang=&quot;EN-GB&quot; style=&quot;mso-bidi-font-size: 11.0pt; mso-fareast-language: DE;&quot;&gt;15\u00a0micrograms HA**&lt;/span&gt;&lt;/p&gt;\n&lt;p class=&quot;MsoNormal&quot; style=&quot;margin-bottom: 6.0pt; line-height: normal; tab-stops: 10.0cm;&quot;&gt;&lt;span lang=&quot;EN-GB&quot;&gt;B/Austria/1359417/2021-like strain (B/Singapore/WUH4618/2021, wild type) &lt;/span&gt;&lt;span lang=&quot;EN-GB&quot; style=&quot;mso-bidi-font-size: 11.0pt; mso-fareast-language: DE;&quot;&gt;15\u00a0micrograms HA**&lt;/span&gt;&lt;/p&gt;\n&lt;p class=&quot;SmPC-PLtext&quot; style=&quot;tab-stops: 1.0cm 326.05pt;&quot;&gt;&lt;span lang=&quot;EN-GB&quot; style=&quot;mso-bidi-font-size: 10.0pt; color: windowtext; mso-no-proof: no;&quot;&gt;B/Phuket/3073/2013-like strain (B/Singapore/INFTT-16-0610/2016, wild type) 15\u00a0micrograms HA**&lt;/span&gt;&lt;/p&gt;\n&lt;p class=&quot;SmPC-PLtext&quot; style=&quot;tab-stops: 1.0cm 326.05pt;&quot;&gt;&lt;span lang=&quot;EN-GB&quot; style=&quot;color: windowtext;&quot;&gt;\u00a0&lt;/span&gt;&lt;/p&gt;\n&lt;p class=&quot;SmPC-PLtext&quot; style=&quot;tab-stops: 1.0cm 326.05pt;&quot;&gt;&lt;span lang=&quot;EN-GB&quot; style=&quot;color: windowtext;&quot;&gt;per\u00a00.5\u00a0ml dose&lt;/span&gt;&lt;/p&gt;\n&lt;p class=&quot;SmPC-PLtext&quot;&gt;&lt;span lang=&quot;EN-GB&quot; style=&quot;color: windowtext;&quot;&gt;……………………………………….&lt;/span&gt;&lt;/p&gt;\n&lt;p class=&quot;SmPC-PLtext&quot; style=&quot;margin-left: 1.0cm; text-indent: -1.0cm;&quot;&gt;&lt;span style=&quot;color: windowtext; mso-ansi-language: EN-US;&quot;&gt;*&lt;span style=&quot;mso-tab-count: 1;&quot;&gt;\u00a0\u00a0\u00a0\u00a0\u00a0\u00a0\u00a0 &lt;/span&gt;propagated in Madin Darby Canine Kidney (MDCK) cells (this is the special cell culture in which the influenza virus is grown); &lt;/span&gt;&lt;/p&gt;\n&lt;p class=&quot;SmPC-PLtext&quot; style=&quot;margin-left: 1.0cm; text-indent: -1.0cm;&quot;&gt;&lt;span style=&quot;color: windowtext; mso-ansi-language: EN-US;&quot;&gt;**&lt;span style=&quot;mso-tab-count: 1;&quot;&gt;\u00a0\u00a0\u00a0\u00a0\u00a0 &lt;/span&gt;haemagglutinin&lt;/span&gt;&lt;/p&gt;\n&lt;p class=&quot;MsoNormal&quot; style=&quot;margin-right: -.1pt; line-height: normal; mso-list: skip; tab-stops: 36.0pt;&quot;&gt;&lt;span style=&quot;mso-bidi-font-size: 11.0pt; mso-ansi-language: EN-US; mso-no-proof: yes;&quot;&gt;\u00a0&lt;/span&gt;&lt;/p&gt;\n&lt;p class=&quot;MsoNormal&quot; style=&quot;margin-right: -.1pt; line-height: normal; mso-list: skip; tab-stops: 36.0pt;&quot;&gt;&lt;span style=&quot;mso-bidi-font-size: 11.0pt; mso-ansi-language: EN-US; mso-no-proof: yes;&quot;&gt;This vaccine complies with the World Health Organisation (WHO) recommendation (northern hemisphere) and EU recommendation for the 2022/2023 SEASON.&lt;/span&gt;&lt;/p&gt;\n&lt;p class=&quot;MsoNormal&quot; style=&quot;margin-right: -.1pt; line-height: normal; mso-list: skip; tab-stops: 36.0pt;&quot;&gt;&lt;span style=&quot;mso-bidi-font-size: 11.0pt; mso-ansi-language: EN-US; mso-no-proof: yes;&quot;&gt;\u00a0&lt;/span&gt;&lt;/p&gt;\n&lt;p class=&quot;MsoNormal&quot; style=&quot;margin-right: -.1pt; line-height: normal; mso-list: skip; tab-stops: 36.0pt;&quot;&gt;&lt;span style=&quot;mso-bidi-font-size: 11.0pt; mso-ansi-language: EN-US; mso-no-proof: yes;&quot;&gt;The other ingredients are: &lt;/span&gt;&lt;span class=&quot;SmPC-PLtextChar&quot;&gt;&lt;span lang=&quot;EN-GB&quot;&gt;sodium chloride, potassium chloride, magnesium chloride hexahydrate, disodium phosphate dihydrate, potassium dihydrogen phosphate and water for injections.&lt;/span&gt;&lt;/span&gt;&lt;/p&gt;</div>"
                }
              },
              {
                "id" : "c586c5c0-25e0-ed11-a7c7-000d3aaa0c5f",
                "title" : "What Flucelvax Tetra looks like and contents of the pack",
                "code" : {
                  "coding" : [{
                    "system" : "https://spor.ema.europa.eu/rmswi/#/lists/200000029659/terms/200000029916",
                    "code" : "200000029916",
                    "display" : "What X looks like and contents of the pack"
                  }]
                },
                "text" : {
                  "status" : "generated",
                  "div" : "<div xmlns=\"http://www.w3.org/1999/xhtml\">&lt;p class=&quot;SmPC-PLtext&quot;&gt;&lt;span style=&quot;mso-fareast-font-family: 'MS Mincho'; color: windowtext; mso-ansi-language: EN-US;&quot;&gt;Flucelvax Tetra&lt;/span&gt;&lt;span style=&quot;mso-fareast-font-family: 'MS Mincho'; mso-ansi-language: EN-US;&quot;&gt; &lt;/span&gt;&lt;span lang=&quot;EN-GB&quot; style=&quot;color: windowtext;&quot;&gt;is a suspension for injection in a pre-filled syringe (ready to use syringe). &lt;br /&gt;&lt;/span&gt;&lt;span style=&quot;mso-fareast-font-family: 'MS Mincho'; color: windowtext; mso-ansi-language: EN-US;&quot;&gt;Flucelvax Tetra&lt;/span&gt;&lt;span style=&quot;mso-fareast-font-family: 'MS Mincho'; mso-ansi-language: EN-US;&quot;&gt; &lt;/span&gt;&lt;span lang=&quot;EN-GB&quot; style=&quot;color: windowtext;&quot;&gt;is a clear to slightly opalescent suspension.&lt;/span&gt;&lt;/p&gt;\n&lt;p class=&quot;SmPC-PLtext&quot;&gt;&lt;span lang=&quot;EN-GB&quot; style=&quot;color: windowtext;&quot;&gt;A single syringe contains 0.5\u00a0ml of suspension for injection.&lt;/span&gt;&lt;/p&gt;\n&lt;p class=&quot;SmPC-PLtext&quot;&gt;&lt;span style=&quot;mso-fareast-font-family: 'MS Mincho'; color: windowtext; mso-ansi-language: EN-US;&quot;&gt;Flucelvax Tetra&lt;/span&gt;&lt;span style=&quot;mso-fareast-font-family: 'MS Mincho'; mso-ansi-language: EN-US;&quot;&gt; &lt;/span&gt;&lt;span lang=&quot;EN-GB&quot; style=&quot;color: windowtext;&quot;&gt;is available in packs containing 1 pre-filled syringe with or without needle or 10 pre-filled syringes with or without needles.&lt;/span&gt;&lt;/p&gt;\n&lt;p class=&quot;SmPC-PLtext&quot;&gt;&lt;span lang=&quot;EN-GB&quot; style=&quot;color: windowtext;&quot;&gt;Not all pack sizes may be marketed.&lt;/span&gt;&lt;/p&gt;</div>"
                }
              },
              {
                "id" : "cb86c5c0-25e0-ed11-a7c7-000d3aaa0c5f",
                "title" : "Marketing Authorisation Holder and Manufacturer",
                "code" : {
                  "coding" : [{
                    "system" : "https://spor.ema.europa.eu/rmswi/#/lists/200000029659/terms/200000029917",
                    "code" : "200000029917",
                    "display" : "Marketing Authorisation Holder and Manufacturer"
                  }]
                },
                "text" : {
                  "status" : "generated",
                  "div" : "<div xmlns=\"http://www.w3.org/1999/xhtml\">&lt;p class=&quot;MsoNormal&quot; style=&quot;margin-right: -.1pt; line-height: normal; mso-list: skip; tab-stops: 36.0pt;&quot;&gt;&lt;strong style=&quot;mso-bidi-font-weight: normal;&quot;&gt;&lt;span lang=&quot;EN-GB&quot; style=&quot;mso-bidi-font-size: 11.0pt;&quot;&gt;Marketing Authorisation Holder &lt;/span&gt;&lt;/strong&gt;&lt;/p&gt;\n&lt;p class=&quot;SmPC-PLtext&quot;&gt;&lt;span style=&quot;color: windowtext; mso-ansi-language: EN-US;&quot;&gt;Seqirus Netherlands B.V.&lt;/span&gt;&lt;/p&gt;\n&lt;p class=&quot;SmPC-PLtext&quot; style=&quot;mso-pagination: widow-orphan lines-together; page-break-after: avoid;&quot;&gt;&lt;span lang=&quot;NL&quot; style=&quot;color: windowtext; mso-ansi-language: NL;&quot;&gt;Paasheuvelweg 28&lt;/span&gt;&lt;/p&gt;\n&lt;p class=&quot;SmPC-PLtext&quot; style=&quot;mso-pagination: widow-orphan lines-together; page-break-after: avoid;&quot;&gt;&lt;span lang=&quot;NL&quot; style=&quot;color: windowtext; mso-ansi-language: NL;&quot;&gt;1105BJ Amsterdam&lt;/span&gt;&lt;/p&gt;\n&lt;p class=&quot;SmPC-PLtext&quot;&gt;&lt;span lang=&quot;NL&quot; style=&quot;color: windowtext; mso-ansi-language: NL;&quot;&gt;Netherlands&lt;/span&gt;&lt;/p&gt;\n&lt;p class=&quot;SmPC-PLtext&quot;&gt;&lt;span lang=&quot;NL&quot; style=&quot;color: windowtext; mso-ansi-language: NL;&quot;&gt;\u00a0&lt;/span&gt;&lt;/p&gt;\n&lt;p class=&quot;SmPC-PLtext&quot; style=&quot;mso-pagination: widow-orphan lines-together; page-break-after: avoid;&quot;&gt;&lt;strong style=&quot;mso-bidi-font-weight: normal;&quot;&gt;&lt;span lang=&quot;NL&quot; style=&quot;color: windowtext; mso-ansi-language: NL;&quot;&gt;Manufacturer&lt;/span&gt;&lt;/strong&gt;&lt;/p&gt;\n&lt;p class=&quot;MsoNormal&quot; style=&quot;line-height: normal; page-break-after: avoid;&quot;&gt;&lt;span lang=&quot;NL&quot; style=&quot;mso-bidi-font-size: 11.0pt; mso-ansi-language: NL;&quot;&gt;Seqirus Netherlands B.V.&lt;/span&gt;&lt;/p&gt;\n&lt;p class=&quot;SmPC-PLtext&quot; style=&quot;mso-pagination: widow-orphan lines-together; page-break-after: avoid;&quot;&gt;&lt;span lang=&quot;NL&quot; style=&quot;color: windowtext; mso-ansi-language: NL;&quot;&gt;Paasheuvelweg 28&lt;/span&gt;&lt;/p&gt;\n&lt;p class=&quot;SmPC-PLtext&quot; style=&quot;mso-pagination: widow-orphan lines-together; page-break-after: avoid;&quot;&gt;&lt;span style=&quot;color: windowtext; mso-ansi-language: EN-US;&quot;&gt;1105BJ Amsterdam&lt;/span&gt;&lt;/p&gt;\n&lt;p class=&quot;SmPC-PLtext&quot;&gt;&lt;span style=&quot;color: windowtext; mso-ansi-language: EN-US; mso-no-proof: no;&quot;&gt;Netherlands&lt;/span&gt;&lt;/p&gt;\n&lt;p class=&quot;SmPC-PLtext&quot;&gt;&lt;span style=&quot;color: windowtext; mso-ansi-language: EN-US;&quot;&gt;\u00a0&lt;/span&gt;&lt;/p&gt;\n&lt;p class=&quot;MsoNormal&quot;&gt;&lt;span lang=&quot;EN-GB&quot; style=&quot;mso-bidi-font-size: 11.0pt; mso-no-proof: yes;&quot;&gt;For any information about this medicine, please contact the local representative of the Marketing Authorization Holder:&lt;/span&gt;&lt;/p&gt;\n&lt;p class=&quot;MsoNormal&quot;&gt;&lt;span lang=&quot;EN-GB&quot; style=&quot;mso-bidi-font-size: 11.0pt; mso-no-proof: yes;&quot;&gt;\u00a0&lt;/span&gt;&lt;/p&gt;\n&lt;table class=&quot;MsoTableGrid&quot; style=&quot;border-collapse: collapse; border: none; mso-yfti-tbllook: 1184; mso-padding-alt: 0cm 5.4pt 0cm 5.4pt; mso-border-insideh: none; mso-border-insidev: none;&quot; border=&quot;0&quot; cellspacing=&quot;0&quot; cellpadding=&quot;0&quot;&gt;\n&lt;tbody&gt;\n&lt;tr style=&quot;mso-yfti-irow: 0; mso-yfti-firstrow: yes; mso-yfti-lastrow: yes;&quot;&gt;\n&lt;td style=&quot;width: 230.25pt; padding: 0cm 5.4pt 0cm 5.4pt;&quot; valign=&quot;top&quot; width=&quot;307&quot;&gt;\n&lt;p class=&quot;MsoNormal&quot;&gt;&lt;strong&gt;&lt;span lang=&quot;NL&quot; style=&quot;mso-bidi-font-size: 11.0pt; mso-ansi-language: NL; mso-no-proof: yes;&quot;&gt;België/Belgique/Belgien&lt;/span&gt;&lt;/strong&gt;&lt;/p&gt;\n&lt;p class=&quot;MsoNormal&quot;&gt;&lt;span lang=&quot;NL&quot; style=&quot;mso-ansi-language: NL;&quot;&gt;Seqirus Netherlands B.V.&lt;/span&gt;&lt;span lang=&quot;NL&quot; style=&quot;mso-bidi-font-size: 11.0pt; mso-ansi-language: NL;&quot;&gt;Nederland/Netherlands&lt;/span&gt;&lt;/p&gt;\n&lt;p class=&quot;MsoNormal&quot;&gt;&lt;span lang=&quot;NL&quot; style=&quot;mso-bidi-font-size: 11.0pt; mso-ansi-language: NL; mso-no-proof: yes;&quot;&gt;Tel: +31 (0) 20 204 6900&lt;/span&gt;&lt;/p&gt;\n&lt;p class=&quot;MsoNormal&quot;&gt;&lt;span lang=&quot;NL&quot; style=&quot;mso-bidi-font-size: 11.0pt; mso-ansi-language: NL; mso-no-proof: yes;&quot;&gt;\u00a0&lt;/span&gt;&lt;/p&gt;\n&lt;p class=&quot;MsoNormal&quot;&gt;&lt;strong&gt;&lt;span lang=&quot;IT&quot; style=&quot;mso-bidi-font-size: 11.0pt; mso-ansi-language: IT; mso-no-proof: yes;&quot;&gt;България&lt;/span&gt;&lt;/strong&gt;&lt;/p&gt;\n&lt;p class=&quot;MsoNormal&quot;&gt;&lt;span lang=&quot;NL&quot; style=&quot;mso-ansi-language: NL;&quot;&gt;Seqirus Netherlands B.V. &lt;/span&gt;&lt;span lang=&quot;EN-GB&quot; style=&quot;mso-bidi-font-size: 11.0pt;&quot;&gt;Нидерландия&lt;/span&gt;&lt;/p&gt;\n&lt;p class=&quot;MsoNormal&quot;&gt;&lt;span lang=&quot;IT&quot; style=&quot;mso-bidi-font-size: 11.0pt; mso-ansi-language: IT; mso-no-proof: yes;&quot;&gt;Тел&lt;/span&gt;&lt;span lang=&quot;NL&quot; style=&quot;mso-bidi-font-size: 11.0pt; mso-ansi-language: NL; mso-no-proof: yes;&quot;&gt;.: +31 (0) 20 204 6900&lt;/span&gt;&lt;/p&gt;\n&lt;p class=&quot;MsoNormal&quot;&gt;&lt;span lang=&quot;NL&quot; style=&quot;mso-bidi-font-size: 11.0pt; mso-ansi-language: NL; mso-no-proof: yes;&quot;&gt;\u00a0&lt;/span&gt;&lt;/p&gt;\n&lt;p class=&quot;MsoNormal&quot;&gt;&lt;strong&gt;&lt;span lang=&quot;NL&quot; style=&quot;mso-bidi-font-size: 11.0pt; mso-ansi-language: NL; mso-no-proof: yes;&quot;&gt;Česká republika&lt;/span&gt;&lt;/strong&gt;&lt;/p&gt;\n&lt;p class=&quot;MsoNormal&quot;&gt;&lt;span lang=&quot;NL&quot; style=&quot;mso-ansi-language: NL;&quot;&gt;Seqirus Netherlands B.V. &lt;/span&gt;&lt;span lang=&quot;NL&quot; style=&quot;mso-bidi-font-size: 11.0pt; mso-ansi-language: NL;&quot;&gt;Nizozemsko&lt;/span&gt;&lt;/p&gt;\n&lt;p class=&quot;MsoNormal&quot;&gt;&lt;span lang=&quot;DE&quot; style=&quot;mso-bidi-font-size: 11.0pt; mso-ansi-language: DE; mso-no-proof: yes;&quot;&gt;Tel: +31 (0) 20 204 6900&lt;/span&gt;&lt;/p&gt;\n&lt;p class=&quot;MsoNormal&quot;&gt;&lt;span lang=&quot;DE&quot; style=&quot;mso-bidi-font-size: 11.0pt; mso-ansi-language: DE; mso-no-proof: yes;&quot;&gt;\u00a0&lt;/span&gt;&lt;/p&gt;\n&lt;p class=&quot;MsoNormal&quot;&gt;&lt;strong&gt;&lt;span lang=&quot;DE&quot; style=&quot;mso-bidi-font-size: 11.0pt; mso-ansi-language: DE; mso-no-proof: yes;&quot;&gt;Danmark&lt;/span&gt;&lt;/strong&gt;&lt;/p&gt;\n&lt;p class=&quot;MsoNormal&quot;&gt;&lt;span lang=&quot;DE&quot; style=&quot;mso-ansi-language: DE;&quot;&gt;Seqirus Netherlands B.V. &lt;/span&gt;&lt;span lang=&quot;DE&quot; style=&quot;mso-bidi-font-size: 11.0pt; mso-ansi-language: DE;&quot;&gt;Holland&lt;/span&gt;&lt;/p&gt;\n&lt;p class=&quot;MsoNormal&quot;&gt;&lt;span lang=&quot;DE&quot; style=&quot;mso-bidi-font-size: 11.0pt; mso-ansi-language: DE; mso-no-proof: yes;&quot;&gt;Tlf: +31 (0) 20 204 6900&lt;/span&gt;&lt;/p&gt;\n&lt;p class=&quot;MsoNormal&quot;&gt;&lt;span lang=&quot;DE&quot; style=&quot;mso-bidi-font-size: 11.0pt; mso-ansi-language: DE; mso-no-proof: yes;&quot;&gt;\u00a0&lt;/span&gt;&lt;/p&gt;\n&lt;p class=&quot;MsoNormal&quot;&gt;&lt;strong&gt;&lt;span lang=&quot;DE&quot; style=&quot;mso-bidi-font-size: 11.0pt; mso-ansi-language: DE; mso-no-proof: yes;&quot;&gt;Deutschland&lt;/span&gt;&lt;/strong&gt;&lt;/p&gt;\n&lt;p class=&quot;MsoNormal&quot;&gt;&lt;span lang=&quot;DE&quot; style=&quot;mso-ansi-language: DE;&quot;&gt;Seqirus GmbH Marburg&lt;/span&gt;&lt;/p&gt;\n&lt;p class=&quot;MsoNormal&quot;&gt;&lt;span lang=&quot;DE&quot; style=&quot;mso-ansi-language: DE;&quot;&gt;Tel: 08003601010&lt;/span&gt;&lt;/p&gt;\n&lt;p class=&quot;MsoNormal&quot;&gt;&lt;span lang=&quot;DE&quot; style=&quot;mso-bidi-font-size: 11.0pt; mso-ansi-language: DE; mso-no-proof: yes;&quot;&gt;\u00a0&lt;/span&gt;&lt;/p&gt;\n&lt;p class=&quot;MsoNormal&quot;&gt;&lt;strong&gt;&lt;span lang=&quot;DE&quot; style=&quot;mso-bidi-font-size: 11.0pt; mso-ansi-language: DE; mso-no-proof: yes;&quot;&gt;Eesti&lt;/span&gt;&lt;/strong&gt;&lt;/p&gt;\n&lt;p class=&quot;MsoNormal&quot;&gt;&lt;span lang=&quot;DE&quot; style=&quot;mso-ansi-language: DE;&quot;&gt;Seqirus Netherlands B.V. &lt;/span&gt;&lt;span lang=&quot;DE&quot; style=&quot;mso-bidi-font-size: 11.0pt; mso-ansi-language: DE;&quot;&gt;Holland&lt;/span&gt;&lt;/p&gt;\n&lt;p class=&quot;MsoNormal&quot;&gt;&lt;span lang=&quot;DE&quot; style=&quot;mso-bidi-font-size: 11.0pt; mso-ansi-language: DE; mso-no-proof: yes;&quot;&gt;Tel: +31 (0) 20 204 6900&lt;/span&gt;&lt;/p&gt;\n&lt;p class=&quot;MsoNormal&quot;&gt;&lt;span lang=&quot;DE&quot; style=&quot;mso-bidi-font-size: 11.0pt; mso-ansi-language: DE; mso-no-proof: yes;&quot;&gt;\u00a0&lt;/span&gt;&lt;/p&gt;\n&lt;p class=&quot;MsoNormal&quot;&gt;&lt;strong&gt;&lt;span lang=&quot;IT&quot; style=&quot;mso-bidi-font-size: 11.0pt; mso-ansi-language: IT; mso-no-proof: yes;&quot;&gt;Ελλάδα&lt;/span&gt;&lt;/strong&gt;&lt;/p&gt;\n&lt;p class=&quot;MsoNormal&quot;&gt;&lt;span lang=&quot;DE&quot; style=&quot;mso-ansi-language: DE;&quot;&gt;Seqirus Netherlands B.V. &lt;/span&gt;&lt;span lang=&quot;EN-GB&quot;&gt;Ολλανδία&lt;/span&gt;&lt;/p&gt;\n&lt;p class=&quot;MsoNormal&quot;&gt;&lt;span lang=&quot;IT&quot; style=&quot;mso-bidi-font-size: 11.0pt; mso-ansi-language: IT; mso-no-proof: yes;&quot;&gt;Τηλ&lt;/span&gt;&lt;span lang=&quot;ES-TRAD&quot; style=&quot;mso-bidi-font-size: 11.0pt; mso-ansi-language: ES-TRAD; mso-no-proof: yes;&quot;&gt;: +31 (0) 20 204 6900&lt;/span&gt;&lt;/p&gt;\n&lt;p class=&quot;MsoNormal&quot;&gt;&lt;span lang=&quot;ES-TRAD&quot; style=&quot;mso-bidi-font-size: 11.0pt; mso-ansi-language: ES-TRAD; mso-no-proof: yes;&quot;&gt;\u00a0&lt;/span&gt;&lt;/p&gt;\n&lt;p class=&quot;MsoNormal&quot;&gt;&lt;strong&gt;&lt;span lang=&quot;ES-TRAD&quot; style=&quot;mso-bidi-font-size: 11.0pt; mso-ansi-language: ES-TRAD; mso-no-proof: yes;&quot;&gt;España&lt;/span&gt;&lt;/strong&gt;&lt;/p&gt;\n&lt;p class=&quot;MsoNormal&quot;&gt;&lt;span lang=&quot;ES-TRAD&quot; style=&quot;mso-ansi-language: ES-TRAD;&quot;&gt;Seqirus Spain, S.L., Barcelona&lt;/span&gt;&lt;/p&gt;\n&lt;p class=&quot;MsoNormal&quot;&gt;&lt;span lang=&quot;EN-GB&quot;&gt;Tel: 937 817 884&lt;/span&gt;&lt;/p&gt;\n&lt;p class=&quot;MsoNormal&quot;&gt;&lt;span lang=&quot;EN-GB&quot; style=&quot;mso-bidi-font-size: 11.0pt; mso-no-proof: yes;&quot;&gt;\u00a0&lt;/span&gt;&lt;/p&gt;\n&lt;p class=&quot;MsoNormal&quot;&gt;&lt;strong&gt;&lt;span lang=&quot;EN-GB&quot; style=&quot;mso-bidi-font-size: 11.0pt; mso-no-proof: yes;&quot;&gt;France&lt;/span&gt;&lt;/strong&gt;&lt;/p&gt;\n&lt;p class=&quot;MsoNormal&quot; style=&quot;line-height: normal; page-break-after: avoid;&quot;&gt;&lt;span lang=&quot;EN-GB&quot;&gt;Seqirus Netherlands B.V. &lt;/span&gt;&lt;span lang=&quot;EN-GB&quot; style=&quot;mso-bidi-font-size: 11.0pt;&quot;&gt;Netherlands&lt;/span&gt;&lt;/p&gt;\n&lt;p class=&quot;MsoNormal&quot;&gt;&lt;span lang=&quot;EN-GB&quot; style=&quot;mso-bidi-font-size: 11.0pt; mso-no-proof: yes;&quot;&gt;Tél: +31 (0) 20 204 6900&lt;/span&gt;&lt;/p&gt;\n&lt;p class=&quot;MsoNormal&quot;&gt;&lt;span lang=&quot;EN-GB&quot; style=&quot;mso-bidi-font-size: 11.0pt; mso-no-proof: yes;&quot;&gt;\u00a0&lt;/span&gt;&lt;/p&gt;\n&lt;p class=&quot;MsoNormal&quot;&gt;&lt;strong&gt;&lt;span lang=&quot;EN-GB&quot; style=&quot;mso-bidi-font-size: 11.0pt; mso-no-proof: yes;&quot;&gt;Hrvatska&lt;/span&gt;&lt;/strong&gt;&lt;/p&gt;\n&lt;p class=&quot;MsoNormal&quot;&gt;&lt;span lang=&quot;EN-GB&quot;&gt;Seqirus Netherlands B.V. &lt;/span&gt;&lt;span lang=&quot;EN-GB&quot; style=&quot;mso-bidi-font-size: 11.0pt;&quot;&gt;Nizozemska&lt;/span&gt;&lt;/p&gt;\n&lt;p class=&quot;MsoNormal&quot;&gt;&lt;span lang=&quot;EN-GB&quot; style=&quot;mso-bidi-font-size: 11.0pt; mso-no-proof: yes;&quot;&gt;Tel: +31 (0) 20 204 6900&lt;/span&gt;&lt;/p&gt;\n&lt;p class=&quot;MsoNormal&quot;&gt;&lt;span lang=&quot;EN-GB&quot; style=&quot;mso-bidi-font-size: 11.0pt; mso-no-proof: yes;&quot;&gt;\u00a0&lt;/span&gt;&lt;/p&gt;\n&lt;p class=&quot;MsoNormal&quot;&gt;&lt;strong&gt;&lt;span lang=&quot;EN-GB&quot; style=&quot;mso-bidi-font-size: 11.0pt; mso-no-proof: yes;&quot;&gt;Ireland&lt;/span&gt;&lt;/strong&gt;&lt;/p&gt;\n&lt;p class=&quot;MsoNormal&quot;&gt;&lt;span lang=&quot;EN-GB&quot; style=&quot;mso-bidi-font-size: 11.0pt; mso-no-proof: yes;&quot;&gt;Seqirus UK Limited Maidenhead&lt;/span&gt;&lt;/p&gt;\n&lt;p class=&quot;MsoNormal&quot;&gt;&lt;span lang=&quot;EN-GB&quot; style=&quot;mso-bidi-font-size: 11.0pt; mso-no-proof: yes;&quot;&gt;Tel: +44 1628 641 500&lt;/span&gt;&lt;/p&gt;\n&lt;p class=&quot;MsoNormal&quot;&gt;&lt;span lang=&quot;EN-GB&quot; style=&quot;mso-bidi-font-size: 11.0pt; mso-no-proof: yes;&quot;&gt;\u00a0&lt;/span&gt;&lt;/p&gt;\n&lt;p class=&quot;MsoNormal&quot;&gt;&lt;strong&gt;&lt;span lang=&quot;EN-GB&quot; style=&quot;mso-bidi-font-size: 11.0pt; mso-no-proof: yes;&quot;&gt;Ísland&lt;/span&gt;&lt;/strong&gt;&lt;/p&gt;\n&lt;p class=&quot;MsoNormal&quot;&gt;&lt;span lang=&quot;EN-GB&quot;&gt;Seqirus Netherlands B.V. &lt;/span&gt;&lt;span lang=&quot;EN-GB&quot; style=&quot;mso-bidi-font-size: 11.0pt; mso-no-proof: yes;&quot;&gt;Holland&lt;/span&gt;&lt;/p&gt;\n&lt;p class=&quot;MsoNormal&quot;&gt;&lt;span lang=&quot;IT&quot; style=&quot;mso-bidi-font-size: 11.0pt; mso-ansi-language: IT; mso-no-proof: yes;&quot;&gt;Sími: +31 (0) 20 204 6900&lt;/span&gt;&lt;/p&gt;\n&lt;p class=&quot;MsoNormal&quot;&gt;&lt;span lang=&quot;IT&quot; style=&quot;mso-bidi-font-size: 11.0pt; mso-ansi-language: IT; mso-no-proof: yes;&quot;&gt;\u00a0&lt;/span&gt;&lt;/p&gt;\n&lt;p class=&quot;MsoNormal&quot;&gt;&lt;strong&gt;&lt;span lang=&quot;IT&quot; style=&quot;mso-bidi-font-size: 11.0pt; mso-ansi-language: IT; mso-no-proof: yes;&quot;&gt;Italia&lt;/span&gt;&lt;/strong&gt;&lt;/p&gt;\n&lt;p class=&quot;MsoNormal&quot;&gt;&lt;span lang=&quot;IT&quot; style=&quot;mso-bidi-font-size: 11.0pt; mso-ansi-language: IT; mso-no-proof: yes;&quot;&gt;Seqirus S.r.l. Siena&lt;/span&gt;&lt;/p&gt;\n&lt;p class=&quot;MsoNormal&quot;&gt;&lt;span lang=&quot;IT&quot; style=&quot;mso-bidi-font-size: 11.0pt; mso-ansi-language: IT; mso-no-proof: yes;&quot;&gt;Tel: +39 0577 096400&lt;/span&gt;&lt;/p&gt;\n&lt;p class=&quot;MsoNormal&quot;&gt;&lt;span lang=&quot;IT&quot; style=&quot;mso-bidi-font-size: 11.0pt; mso-ansi-language: IT; mso-no-proof: yes;&quot;&gt;\u00a0&lt;/span&gt;&lt;/p&gt;\n&lt;p class=&quot;MsoNormal&quot;&gt;&lt;strong&gt;&lt;span lang=&quot;IT&quot; style=&quot;mso-bidi-font-size: 11.0pt; mso-ansi-language: IT; mso-no-proof: yes;&quot;&gt;Κύπρος&lt;/span&gt;&lt;/strong&gt;&lt;/p&gt;\n&lt;p class=&quot;MsoNormal&quot;&gt;&lt;span lang=&quot;IT&quot; style=&quot;mso-ansi-language: IT;&quot;&gt;Seqirus Netherlands B.V. &lt;/span&gt;&lt;span lang=&quot;EN-GB&quot;&gt;Ολλανδία&lt;/span&gt;&lt;/p&gt;\n&lt;p class=&quot;MsoNormal&quot;&gt;&lt;span lang=&quot;IT&quot; style=&quot;mso-bidi-font-size: 11.0pt; mso-ansi-language: IT; mso-no-proof: yes;&quot;&gt;Τηλ: +31 (0) 20 204 6900&lt;/span&gt;&lt;/p&gt;\n&lt;p class=&quot;MsoNormal&quot;&gt;&lt;span lang=&quot;IT&quot; style=&quot;mso-bidi-font-size: 11.0pt; mso-ansi-language: IT; mso-no-proof: yes;&quot;&gt;\u00a0&lt;/span&gt;&lt;/p&gt;\n&lt;p class=&quot;MsoNormal&quot;&gt;&lt;strong&gt;&lt;span lang=&quot;IT&quot; style=&quot;mso-bidi-font-size: 11.0pt; mso-ansi-language: IT; mso-no-proof: yes;&quot;&gt;Latvija&lt;/span&gt;&lt;/strong&gt;&lt;/p&gt;\n&lt;p class=&quot;MsoNormal&quot;&gt;&lt;span lang=&quot;IT&quot; style=&quot;mso-ansi-language: IT;&quot;&gt;Seqirus Netherlands B.V. &lt;/span&gt;&lt;span lang=&quot;IT&quot; style=&quot;mso-bidi-font-size: 11.0pt; mso-ansi-language: IT;&quot;&gt;Nīderlande&lt;/span&gt;&lt;/p&gt;\n&lt;p class=&quot;MsoNormal&quot;&gt;&lt;span lang=&quot;EN-GB&quot; style=&quot;mso-bidi-font-size: 11.0pt; mso-no-proof: yes;&quot;&gt;Tel: +31 (0) 20 204 6900&lt;/span&gt;&lt;/p&gt;\n&lt;p class=&quot;MsoNormal&quot;&gt;&lt;span lang=&quot;EN-GB&quot; style=&quot;mso-bidi-font-size: 11.0pt; mso-no-proof: yes;&quot;&gt;\u00a0&lt;/span&gt;&lt;/p&gt;\n&lt;/td&gt;\n&lt;td style=&quot;width: 230.3pt; padding: 0cm 5.4pt 0cm 5.4pt;&quot; valign=&quot;top&quot; width=&quot;307&quot;&gt;\n&lt;p class=&quot;MsoNormal&quot;&gt;&lt;strong&gt;&lt;span lang=&quot;IT&quot; style=&quot;mso-bidi-font-size: 11.0pt; mso-ansi-language: IT; mso-no-proof: yes;&quot;&gt;Lietuva&lt;/span&gt;&lt;/strong&gt;&lt;/p&gt;\n&lt;p class=&quot;MsoNormal&quot;&gt;&lt;span lang=&quot;IT&quot; style=&quot;mso-ansi-language: IT;&quot;&gt;Seqirus Netherlands B.V. &lt;/span&gt;&lt;span lang=&quot;IT&quot; style=&quot;mso-bidi-font-size: 11.0pt; mso-ansi-language: IT;&quot;&gt;Nyderlandai&lt;/span&gt;&lt;/p&gt;\n&lt;p class=&quot;MsoNormal&quot;&gt;&lt;span lang=&quot;DE&quot; style=&quot;mso-bidi-font-size: 11.0pt; mso-ansi-language: DE; mso-no-proof: yes;&quot;&gt;Tel: +31 (0) 20 204 6900&lt;/span&gt;&lt;/p&gt;\n&lt;p class=&quot;MsoNormal&quot;&gt;&lt;span lang=&quot;DE&quot; style=&quot;mso-bidi-font-size: 11.0pt; mso-ansi-language: DE; mso-no-proof: yes;&quot;&gt;\u00a0&lt;/span&gt;&lt;/p&gt;\n&lt;p class=&quot;MsoNormal&quot;&gt;&lt;strong&gt;&lt;span lang=&quot;DE&quot; style=&quot;mso-bidi-font-size: 11.0pt; mso-ansi-language: DE; mso-no-proof: yes;&quot;&gt;Luxembourg/Luxemburg&lt;/span&gt;&lt;/strong&gt;&lt;/p&gt;\n&lt;p class=&quot;MsoNormal&quot;&gt;&lt;span lang=&quot;DE&quot; style=&quot;mso-ansi-language: DE;&quot;&gt;Seqirus Netherlands B.V. &lt;/span&gt;&lt;span lang=&quot;DE&quot; style=&quot;mso-bidi-font-size: 11.0pt; mso-ansi-language: DE;&quot;&gt;Netherlands&lt;/span&gt;&lt;/p&gt;\n&lt;p class=&quot;MsoNormal&quot;&gt;&lt;span lang=&quot;DE&quot; style=&quot;mso-bidi-font-size: 11.0pt; mso-ansi-language: DE; mso-no-proof: yes;&quot;&gt;Tél/Tel: +31 (0) 20 204 6900&lt;/span&gt;&lt;/p&gt;\n&lt;p class=&quot;MsoNormal&quot;&gt;&lt;span lang=&quot;DE&quot; style=&quot;mso-bidi-font-size: 11.0pt; mso-ansi-language: DE; mso-no-proof: yes;&quot;&gt;\u00a0&lt;/span&gt;&lt;/p&gt;\n&lt;p class=&quot;MsoNormal&quot;&gt;&lt;strong&gt;&lt;span lang=&quot;DE&quot; style=&quot;mso-bidi-font-size: 11.0pt; mso-ansi-language: DE; mso-no-proof: yes;&quot;&gt;Magyarország&lt;/span&gt;&lt;/strong&gt;&lt;/p&gt;\n&lt;p class=&quot;MsoNormal&quot;&gt;&lt;span lang=&quot;DE&quot; style=&quot;mso-ansi-language: DE;&quot;&gt;Seqirus Netherlands B.V. &lt;/span&gt;&lt;span lang=&quot;DE&quot; style=&quot;mso-bidi-font-size: 11.0pt; mso-ansi-language: DE;&quot;&gt;Hollandia&lt;/span&gt;&lt;/p&gt;\n&lt;p class=&quot;MsoNormal&quot;&gt;&lt;span lang=&quot;DE&quot; style=&quot;mso-bidi-font-size: 11.0pt; mso-ansi-language: DE; mso-no-proof: yes;&quot;&gt;Tel.: +31 (0) 20 204 6900&lt;/span&gt;&lt;/p&gt;\n&lt;p class=&quot;MsoNormal&quot;&gt;&lt;span lang=&quot;DE&quot; style=&quot;mso-bidi-font-size: 11.0pt; mso-ansi-language: DE; mso-no-proof: yes;&quot;&gt;\u00a0&lt;/span&gt;&lt;/p&gt;\n&lt;p class=&quot;MsoNormal&quot;&gt;&lt;strong&gt;&lt;span lang=&quot;DE&quot; style=&quot;mso-bidi-font-size: 11.0pt; mso-ansi-language: DE; mso-no-proof: yes;&quot;&gt;Malta&lt;/span&gt;&lt;/strong&gt;&lt;/p&gt;\n&lt;p class=&quot;MsoNormal&quot;&gt;&lt;span lang=&quot;DE&quot; style=&quot;mso-ansi-language: DE;&quot;&gt;Seqirus Netherlands B.V. &lt;/span&gt;&lt;span lang=&quot;DE&quot; style=&quot;mso-bidi-font-size: 11.0pt; mso-ansi-language: DE;&quot;&gt;In-Netherlands&lt;/span&gt;&lt;/p&gt;\n&lt;p class=&quot;MsoNormal&quot;&gt;&lt;span lang=&quot;DE&quot; style=&quot;mso-bidi-font-size: 11.0pt; mso-ansi-language: DE; mso-no-proof: yes;&quot;&gt;Tel: +31 (0) 20 204 6900&lt;/span&gt;&lt;/p&gt;\n&lt;p class=&quot;MsoNormal&quot;&gt;&lt;span lang=&quot;DE&quot; style=&quot;mso-bidi-font-size: 11.0pt; mso-ansi-language: DE; mso-no-proof: yes;&quot;&gt;\u00a0&lt;/span&gt;&lt;/p&gt;\n&lt;p class=&quot;MsoNormal&quot;&gt;&lt;strong&gt;&lt;span lang=&quot;DE&quot; style=&quot;mso-bidi-font-size: 11.0pt; mso-ansi-language: DE; mso-no-proof: yes;&quot;&gt;Nederland&lt;/span&gt;&lt;/strong&gt;&lt;/p&gt;\n&lt;p class=&quot;MsoNormal&quot;&gt;&lt;span lang=&quot;DE&quot; style=&quot;mso-ansi-language: DE;&quot;&gt;Seqirus Netherlands B.V. Amsterdam&lt;/span&gt;&lt;/p&gt;\n&lt;p class=&quot;MsoNormal&quot;&gt;&lt;span lang=&quot;DE&quot; style=&quot;mso-bidi-font-size: 11.0pt; mso-ansi-language: DE; mso-no-proof: yes;&quot;&gt;Tel: +31 (0) 20 204 6900&lt;/span&gt;&lt;/p&gt;\n&lt;p class=&quot;MsoNormal&quot;&gt;&lt;span lang=&quot;DE&quot; style=&quot;mso-bidi-font-size: 11.0pt; mso-ansi-language: DE; mso-no-proof: yes;&quot;&gt;\u00a0&lt;/span&gt;&lt;/p&gt;\n&lt;p class=&quot;MsoNormal&quot;&gt;&lt;strong&gt;&lt;span lang=&quot;DE&quot; style=&quot;mso-bidi-font-size: 11.0pt; mso-ansi-language: DE; mso-no-proof: yes;&quot;&gt;Norge&lt;/span&gt;&lt;/strong&gt;&lt;/p&gt;\n&lt;p class=&quot;MsoNormal&quot;&gt;&lt;span lang=&quot;DE&quot; style=&quot;mso-ansi-language: DE;&quot;&gt;Seqirus Netherlands B.V. &lt;/span&gt;&lt;span lang=&quot;DE&quot; style=&quot;mso-bidi-font-size: 11.0pt; mso-ansi-language: DE;&quot;&gt;Nederland&lt;/span&gt;&lt;/p&gt;\n&lt;p class=&quot;MsoNormal&quot;&gt;&lt;span lang=&quot;DE&quot; style=&quot;mso-bidi-font-size: 11.0pt; mso-ansi-language: DE; mso-no-proof: yes;&quot;&gt;Tlf: +31 (0) 20 204 6900&lt;/span&gt;&lt;/p&gt;\n&lt;p class=&quot;MsoNormal&quot;&gt;&lt;span lang=&quot;DE&quot; style=&quot;mso-bidi-font-size: 11.0pt; mso-ansi-language: DE; mso-no-proof: yes;&quot;&gt;\u00a0&lt;/span&gt;&lt;/p&gt;\n&lt;p class=&quot;MsoNormal&quot;&gt;&lt;strong&gt;&lt;span lang=&quot;DE&quot; style=&quot;mso-bidi-font-size: 11.0pt; mso-ansi-language: DE; mso-no-proof: yes;&quot;&gt;Österreich&lt;/span&gt;&lt;/strong&gt;&lt;/p&gt;\n&lt;p class=&quot;MsoNormal&quot;&gt;&lt;span lang=&quot;DE&quot; style=&quot;mso-ansi-language: DE;&quot;&gt;Valneva Austria GmbH, Wien&lt;/span&gt;&lt;/p&gt;\n&lt;p class=&quot;MsoNormal&quot;&gt;&lt;span lang=&quot;DE&quot; style=&quot;mso-ansi-language: DE;&quot;&gt;Tel: +43 1 20620 &lt;/span&gt;&lt;/p&gt;\n&lt;p class=&quot;MsoNormal&quot;&gt;&lt;span lang=&quot;DE&quot; style=&quot;color: #1f497d; mso-ansi-language: DE;&quot;&gt;\u00a0&lt;/span&gt;&lt;/p&gt;\n&lt;p class=&quot;MsoNormal&quot;&gt;&lt;strong&gt;&lt;span lang=&quot;DE&quot; style=&quot;mso-bidi-font-size: 11.0pt; mso-ansi-language: DE; mso-no-proof: yes;&quot;&gt;Polska&lt;/span&gt;&lt;/strong&gt;&lt;/p&gt;\n&lt;p class=&quot;MsoNormal&quot;&gt;&lt;span lang=&quot;PT&quot; style=&quot;mso-ansi-language: PT;&quot;&gt;Seqirus Netherlands B.V. &lt;/span&gt;&lt;span lang=&quot;PT&quot; style=&quot;mso-bidi-font-size: 11.0pt; mso-ansi-language: PT;&quot;&gt;Holandia&lt;/span&gt;&lt;/p&gt;\n&lt;p class=&quot;MsoNormal&quot;&gt;&lt;span lang=&quot;PT&quot; style=&quot;mso-bidi-font-size: 11.0pt; mso-ansi-language: PT; mso-no-proof: yes;&quot;&gt;Tel.: +31 (0) 20 204 6900&lt;/span&gt;&lt;/p&gt;\n&lt;p class=&quot;MsoNormal&quot;&gt;&lt;span lang=&quot;PT&quot; style=&quot;mso-bidi-font-size: 11.0pt; mso-ansi-language: PT; mso-no-proof: yes;&quot;&gt;\u00a0&lt;/span&gt;&lt;/p&gt;\n&lt;p class=&quot;MsoNormal&quot;&gt;&lt;strong&gt;&lt;span lang=&quot;PT&quot; style=&quot;mso-bidi-font-size: 11.0pt; mso-ansi-language: PT; mso-no-proof: yes;&quot;&gt;Portugal&lt;/span&gt;&lt;/strong&gt;&lt;/p&gt;\n&lt;p class=&quot;MsoNormal&quot;&gt;&lt;span lang=&quot;PT&quot; style=&quot;mso-ansi-language: PT;&quot;&gt;Seqirus Netherlands B.V. &lt;/span&gt;&lt;span lang=&quot;PT&quot; style=&quot;mso-bidi-font-size: 11.0pt; mso-ansi-language: PT;&quot;&gt;Países Baixos&lt;/span&gt;&lt;/p&gt;\n&lt;p class=&quot;MsoNormal&quot;&gt;&lt;span lang=&quot;PT&quot; style=&quot;mso-bidi-font-size: 11.0pt; mso-ansi-language: PT; mso-no-proof: yes;&quot;&gt;Tel: +31 (0) 20 204 6900&lt;/span&gt;&lt;/p&gt;\n&lt;p class=&quot;MsoNormal&quot;&gt;&lt;span lang=&quot;PT&quot; style=&quot;mso-bidi-font-size: 11.0pt; mso-ansi-language: PT; mso-no-proof: yes;&quot;&gt;\u00a0&lt;/span&gt;&lt;/p&gt;\n&lt;p class=&quot;MsoNormal&quot;&gt;&lt;strong&gt;&lt;span lang=&quot;PT&quot; style=&quot;mso-bidi-font-size: 11.0pt; mso-ansi-language: PT; mso-no-proof: yes;&quot;&gt;România&lt;/span&gt;&lt;/strong&gt;&lt;/p&gt;\n&lt;p class=&quot;MsoNormal&quot;&gt;&lt;span lang=&quot;PT&quot; style=&quot;mso-ansi-language: PT;&quot;&gt;Seqirus Netherlands B.V. &lt;/span&gt;&lt;span lang=&quot;PT&quot; style=&quot;mso-bidi-font-size: 11.0pt; mso-ansi-language: PT;&quot;&gt;Olanda&lt;/span&gt;&lt;/p&gt;\n&lt;p class=&quot;MsoNormal&quot;&gt;&lt;span lang=&quot;PT&quot; style=&quot;mso-bidi-font-size: 11.0pt; mso-ansi-language: PT; mso-no-proof: yes;&quot;&gt;Tel: +31 (0) 20 204 6900&lt;/span&gt;&lt;/p&gt;\n&lt;p class=&quot;MsoNormal&quot;&gt;&lt;span lang=&quot;PT&quot; style=&quot;mso-bidi-font-size: 11.0pt; mso-ansi-language: PT; mso-no-proof: yes;&quot;&gt;\u00a0&lt;/span&gt;&lt;/p&gt;\n&lt;p class=&quot;MsoNormal&quot;&gt;&lt;strong&gt;&lt;span lang=&quot;PT&quot; style=&quot;mso-bidi-font-size: 11.0pt; mso-ansi-language: PT; mso-no-proof: yes;&quot;&gt;Slovenija&lt;/span&gt;&lt;/strong&gt;&lt;/p&gt;\n&lt;p class=&quot;MsoNormal&quot;&gt;&lt;span lang=&quot;PT&quot; style=&quot;mso-ansi-language: PT;&quot;&gt;Seqirus Netherlands B.V. &lt;/span&gt;&lt;span lang=&quot;PT&quot; style=&quot;mso-bidi-font-size: 11.0pt; mso-ansi-language: PT;&quot;&gt;Nizozemska&lt;/span&gt;&lt;/p&gt;\n&lt;p class=&quot;MsoNormal&quot;&gt;&lt;span lang=&quot;PT&quot; style=&quot;mso-bidi-font-size: 11.0pt; mso-ansi-language: PT; mso-no-proof: yes;&quot;&gt;Tel: +31 (0) 20 204 6900&lt;/span&gt;&lt;/p&gt;\n&lt;p class=&quot;MsoNormal&quot;&gt;&lt;span lang=&quot;PT&quot; style=&quot;mso-bidi-font-size: 11.0pt; mso-ansi-language: PT; mso-no-proof: yes;&quot;&gt;\u00a0&lt;/span&gt;&lt;/p&gt;\n&lt;p class=&quot;MsoNormal&quot;&gt;&lt;strong&gt;&lt;span lang=&quot;PT&quot; style=&quot;mso-bidi-font-size: 11.0pt; mso-ansi-language: PT; mso-no-proof: yes;&quot;&gt;Slovenská republika&lt;/span&gt;&lt;/strong&gt;&lt;/p&gt;\n&lt;p class=&quot;MsoNormal&quot;&gt;&lt;span lang=&quot;PT&quot; style=&quot;mso-ansi-language: PT;&quot;&gt;Seqirus Netherlands B.V. &lt;/span&gt;&lt;span lang=&quot;SK&quot; style=&quot;mso-ansi-language: SK;&quot;&gt;Holandsko&lt;/span&gt;&lt;/p&gt;\n&lt;p class=&quot;MsoNormal&quot;&gt;&lt;span lang=&quot;PT&quot; style=&quot;mso-bidi-font-size: 11.0pt; mso-ansi-language: PT; mso-no-proof: yes;&quot;&gt;Tel: +31 (0) 20 204 6900&lt;/span&gt;&lt;/p&gt;\n&lt;p class=&quot;MsoNormal&quot;&gt;&lt;span lang=&quot;PT&quot; style=&quot;mso-bidi-font-size: 11.0pt; mso-ansi-language: PT; mso-no-proof: yes;&quot;&gt;\u00a0&lt;/span&gt;&lt;/p&gt;\n&lt;p class=&quot;MsoNormal&quot;&gt;&lt;strong&gt;&lt;span lang=&quot;PT&quot; style=&quot;mso-bidi-font-size: 11.0pt; mso-ansi-language: PT; mso-no-proof: yes;&quot;&gt;Suomi/Finland&lt;/span&gt;&lt;/strong&gt;&lt;/p&gt;\n&lt;p class=&quot;MsoNormal&quot;&gt;&lt;span lang=&quot;PT&quot; style=&quot;mso-ansi-language: PT;&quot;&gt;Seqirus Netherlands B.V. &lt;/span&gt;&lt;span lang=&quot;PT&quot; style=&quot;mso-bidi-font-size: 11.0pt; mso-ansi-language: PT;&quot;&gt;Alankomaat&lt;/span&gt;&lt;/p&gt;\n&lt;p class=&quot;MsoNormal&quot;&gt;&lt;span lang=&quot;SV&quot; style=&quot;mso-bidi-font-size: 11.0pt; mso-ansi-language: SV; mso-no-proof: yes;&quot;&gt;Puh/Tel: +31 (0) 20 204 6900&lt;/span&gt;&lt;/p&gt;\n&lt;p class=&quot;MsoNormal&quot;&gt;&lt;span lang=&quot;SV&quot; style=&quot;mso-bidi-font-size: 11.0pt; mso-ansi-language: SV; mso-no-proof: yes;&quot;&gt;\u00a0&lt;/span&gt;&lt;/p&gt;\n&lt;p class=&quot;MsoNormal&quot;&gt;&lt;strong&gt;&lt;span lang=&quot;SV&quot; style=&quot;mso-bidi-font-size: 11.0pt; mso-ansi-language: SV; mso-no-proof: yes;&quot;&gt;Sverige&lt;/span&gt;&lt;/strong&gt;&lt;/p&gt;\n&lt;p class=&quot;MsoNormal&quot;&gt;&lt;span lang=&quot;SV&quot; style=&quot;mso-ansi-language: SV;&quot;&gt;Seqirus Netherlands B.V. &lt;/span&gt;&lt;span lang=&quot;SV&quot; style=&quot;mso-bidi-font-size: 11.0pt; mso-ansi-language: SV;&quot;&gt;Nederländerna&lt;/span&gt;&lt;/p&gt;\n&lt;p class=&quot;MsoNormal&quot;&gt;&lt;span lang=&quot;EN-GB&quot; style=&quot;mso-bidi-font-size: 11.0pt; mso-no-proof: yes;&quot;&gt;Tel: +31 (0) 20 204 6900&lt;/span&gt;&lt;/p&gt;\n&lt;p class=&quot;MsoNormal&quot;&gt;&lt;span lang=&quot;EN-GB&quot; style=&quot;mso-bidi-font-size: 11.0pt; mso-no-proof: yes;&quot;&gt;\u00a0&lt;/span&gt;&lt;/p&gt;\n&lt;p class=&quot;MsoNormal&quot;&gt;&lt;span lang=&quot;EN-GB&quot; style=&quot;mso-bidi-font-size: 11.0pt; mso-no-proof: yes;&quot;&gt;\u00a0&lt;/span&gt;&lt;/p&gt;\n&lt;p class=&quot;MsoNormal&quot;&gt;&lt;span lang=&quot;EN-GB&quot; style=&quot;mso-bidi-font-size: 11.0pt; mso-no-proof: yes;&quot;&gt;\u00a0&lt;/span&gt;&lt;/p&gt;\n&lt;/td&gt;\n&lt;/tr&gt;\n&lt;/tbody&gt;\n&lt;/table&gt;</div>"
                }
              },
              {
                "id" : "d486c5c0-25e0-ed11-a7c7-000d3aaa0c5f",
                "title" : "This leaflet was last revised on 07/2022",
                "code" : {
                  "coding" : [{
                    "system" : "https://spor.ema.europa.eu/rmswi/#/lists/200000029659/terms/200000029919",
                    "code" : "200000029919",
                    "display" : "This leaflet was last revised in <{MM/YYYY}><{month YYYY}>."
                  }]
                },
                "text" : {
                  "status" : "generated",
                  "div" : "<div xmlns=\"http://www.w3.org/1999/xhtml\"/>"
                }
              },
              {
                "id" : "de86c5c0-25e0-ed11-a7c7-000d3aaa0c5f",
                "title" : "Other sources of information",
                "code" : {
                  "coding" : [{
                    "system" : "https://spor.ema.europa.eu/rmswi/#/lists/200000029659/terms/200000029920",
                    "code" : "200000029920",
                    "display" : "Other sources of information"
                  }]
                },
                "text" : {
                  "status" : "generated",
                  "div" : "<div xmlns=\"http://www.w3.org/1999/xhtml\">&lt;p class=&quot;MsoNormal&quot; style=&quot;margin-right: -.1pt; line-height: normal; mso-list: skip;&quot;&gt;&lt;span lang=&quot;EN-GB&quot; style=&quot;mso-bidi-font-size: 11.0pt;&quot;&gt;Detailed information on this medicine is available on the European Medicines Agency web site: &lt;/span&gt;&lt;span lang=&quot;EN-GB&quot;&gt;&lt;span style=&quot;mso-field-code: ' HYPERLINK ';&quot;&gt;&lt;span class=&quot;MsoHyperlink&quot;&gt;&lt;span style=&quot;mso-bidi-font-size: 11.0pt; mso-no-proof: yes;&quot;&gt;http://www.ema.europa.eu&lt;/span&gt;&lt;/span&gt;&lt;/span&gt;&lt;/span&gt;&lt;span lang=&quot;EN-GB&quot; style=&quot;mso-bidi-font-size: 11.0pt; mso-no-proof: yes;&quot;&gt;. &lt;/span&gt;&lt;/p&gt;\n&lt;p class=&quot;MsoNormal&quot; style=&quot;margin-right: -.1pt; line-height: normal; mso-list: skip;&quot;&gt;&lt;span lang=&quot;EN-GB&quot; style=&quot;mso-bidi-font-size: 11.0pt; mso-no-proof: yes;&quot;&gt;\u00a0&lt;/span&gt;&lt;/p&gt;\n&lt;p class=&quot;MsoNormal&quot; style=&quot;margin-right: -.1pt; line-height: normal; mso-list: skip;&quot;&gt;&lt;span lang=&quot;EN-GB&quot; style=&quot;mso-bidi-font-size: 11.0pt; mso-no-proof: yes;&quot;&gt;---------------------------------------------------------------------------------------------------------------------------&lt;/span&gt;&lt;/p&gt;\n&lt;p class=&quot;MsoNormal&quot; style=&quot;margin-right: -.1pt; line-height: normal; mso-list: skip;&quot;&gt;&lt;span lang=&quot;EN-GB&quot; style=&quot;mso-bidi-font-size: 11.0pt; mso-no-proof: yes;&quot;&gt;The following information is intended for healthcare professionals only:&lt;/span&gt;&lt;/p&gt;\n&lt;p class=&quot;MsoNormal&quot; style=&quot;margin-right: -.1pt; line-height: normal; mso-list: skip;&quot;&gt;&lt;span lang=&quot;EN-GB&quot; style=&quot;mso-bidi-font-size: 11.0pt; mso-no-proof: yes;&quot;&gt;\u00a0&lt;/span&gt;&lt;/p&gt;\n&lt;p class=&quot;MsoNormal&quot; style=&quot;margin-right: -.1pt; line-height: normal; mso-list: skip;&quot;&gt;&lt;span lang=&quot;EN-GB&quot; style=&quot;mso-bidi-font-size: 11.0pt; mso-no-proof: yes;&quot;&gt;Appropriate medical treatment and supervision should always be readily available in case of a rare anaphylactic event following the administration of the vaccine.&lt;/span&gt;&lt;/p&gt;\n&lt;p class=&quot;MsoNormal&quot; style=&quot;margin-right: -.1pt; line-height: normal; mso-list: skip;&quot;&gt;&lt;span lang=&quot;EN-GB&quot; style=&quot;mso-bidi-font-size: 11.0pt; mso-no-proof: yes;&quot;&gt;\u00a0&lt;/span&gt;&lt;/p&gt;\n&lt;p class=&quot;MsoNormal&quot; style=&quot;margin-right: -.1pt; line-height: normal; mso-list: skip;&quot;&gt;&lt;span lang=&quot;EN-GB&quot; style=&quot;mso-bidi-font-size: 11.0pt; mso-no-proof: yes;&quot;&gt;Shake before use. After shaking, the normal appearance of the vaccine is a clear to slightly opalescent suspension.&lt;/span&gt;&lt;/p&gt;\n&lt;p class=&quot;MsoNormal&quot; style=&quot;margin-right: -.1pt; line-height: normal; mso-list: skip;&quot;&gt;&lt;span lang=&quot;EN-GB&quot; style=&quot;mso-bidi-font-size: 11.0pt; mso-no-proof: yes;&quot;&gt;\u00a0&lt;/span&gt;&lt;/p&gt;\n&lt;p class=&quot;MsoNormal&quot; style=&quot;margin-right: -.1pt; line-height: normal; mso-list: skip;&quot;&gt;&lt;span lang=&quot;EN-GB&quot; style=&quot;mso-bidi-font-size: 11.0pt; mso-no-proof: yes;&quot;&gt;The vaccine should be visually inspected for particulate matter and discoloration prior to administration. In the event of any foreign particulate matter and/or variation of physical aspect being observed, do not administer the vaccine.&lt;/span&gt;&lt;/p&gt;</div>"
                }
              }]
            }]
          }]
        }
      }]
    }
  },
  {
    "fullUrl" : "urn:uuid:ec86c5c0-25e0-ed11-a7c7-000d3aaa0c5f",
    "resource" : {
      "resourceType" : "Bundle",
      "id" : "ec86c5c0-25e0-ed11-a7c7-000d3aaa0c5f",
      "meta" : {
        "versionId" : "1",
        "lastUpdated" : "2023-04-21T12:41:28.269+00:00"
      },
      "identifier" : {
        "system" : "http://ema.europa.eu/fhir",
        "value" : "ec86c5c0-25e0-ed11-a7c7-000d3aaa0c5f"
      },
      "type" : "document",
      "timestamp" : "2023-04-21T12:41:28.269+00:00",
      "entry" : [{
        "fullUrl" : "urn:uuid:ec86c5c0-25e0-ed11-a7c7-000d3aaa0c5f",
        "resource" : {
          "resourceType" : "Composition",
          "id" : "ec86c5c0-25e0-ed11-a7c7-000d3aaa0c5f",
          "language" : "en",
          "status" : "final",
          "type" : {
            "coding" : [{
              "system" : "https://spor.ema.europa.eu/rmswi/#/lists/100000155531/terms/100000155535",
              "code" : "100000155535",
              "display" : "Labelling"
            }]
          },
          "date" : "2023-04-21",
          "author" : [{
            "identifier" : {
              "value" : "systemuser"
            }
          }],
          "title" : "Labelling",
          "section" : [{
            "id" : "0087c5c0-25e0-ed11-a7c7-000d3aaa0c5f",
            "title" : "LABELLING",
            "code" : {
              "coding" : [{
                "system" : "https://spor.ema.europa.eu/rmswi/#/lists/200000029659/terms/200000029861",
                "code" : "200000029861",
                "display" : "LABELLING"
              }]
            },
            "text" : {
              "status" : "generated",
              "div" : "<div xmlns=\"http://www.w3.org/1999/xhtml\"/>"
            },
            "section" : [{
              "id" : "0887c5c0-25e0-ed11-a7c7-000d3aaa0c5f",
              "title" : "PARTICULARS TO APPEAR ON <THE OUTER PACKAGING> <AND> <THE IMMEDIATE PACKAGING> {NATURE/TYPE}",
              "code" : {
                "coding" : [{
                  "system" : "https://spor.ema.europa.eu/rmswi/#/lists/200000029659/terms/200000029862",
                  "code" : "200000029862",
                  "display" : "PARTICULARS TO APPEAR ON <THE OUTER PACKAGING> <AND> <THE IMMEDIATE PACKAGING> {NATURE/TYPE}"
                }]
              },
              "text" : {
                "status" : "generated",
                "div" : "<div xmlns=\"http://www.w3.org/1999/xhtml\"/>"
              },
              "section" : [{
                "id" : "1287c5c0-25e0-ed11-a7c7-000d3aaa0c5f",
                "title" : "1. NAME OF THE MEDICINAL PRODUCT",
                "code" : {
                  "coding" : [{
                    "system" : "https://spor.ema.europa.eu/rmswi/#/lists/200000029659/terms/200000029863",
                    "code" : "200000029863",
                    "display" : "1. NAME OF THE MEDICINAL PRODUCT"
                  }]
                },
                "text" : {
                  "status" : "generated",
                  "div" : "<div xmlns=\"http://www.w3.org/1999/xhtml\"/>"
                }
              },
              {
                "id" : "1987c5c0-25e0-ed11-a7c7-000d3aaa0c5f",
                "title" : "2. STATEMENT OF ACTIVE SUBSTANCE(S)",
                "code" : {
                  "coding" : [{
                    "system" : "https://spor.ema.europa.eu/rmswi/#/lists/200000029659/terms/200000029864",
                    "code" : "200000029864",
                    "display" : "2. STATEMENT OF ACTIVE SUBSTANCE(S)"
                  }]
                },
                "text" : {
                  "status" : "generated",
                  "div" : "<div xmlns=\"http://www.w3.org/1999/xhtml\"/>"
                }
              },
              {
                "id" : "3087c5c0-25e0-ed11-a7c7-000d3aaa0c5f",
                "title" : "3. LIST OF EXCIPIENTS",
                "code" : {
                  "coding" : [{
                    "system" : "https://spor.ema.europa.eu/rmswi/#/lists/200000029659/terms/200000029865",
                    "code" : "200000029865",
                    "display" : "3. LIST OF EXCIPIENTS"
                  }]
                },
                "text" : {
                  "status" : "generated",
                  "div" : "<div xmlns=\"http://www.w3.org/1999/xhtml\"/>"
                }
              },
              {
                "id" : "3c87c5c0-25e0-ed11-a7c7-000d3aaa0c5f",
                "title" : "4. PHARMACEUTICAL FORM AND CONTENTS",
                "code" : {
                  "coding" : [{
                    "system" : "https://spor.ema.europa.eu/rmswi/#/lists/200000029659/terms/200000029866",
                    "code" : "200000029866",
                    "display" : "4. PHARMACEUTICAL FORM AND CONTENTS"
                  }]
                },
                "text" : {
                  "status" : "generated",
                  "div" : "<div xmlns=\"http://www.w3.org/1999/xhtml\"/>"
                }
              },
              {
                "id" : "4787c5c0-25e0-ed11-a7c7-000d3aaa0c5f",
                "title" : "5. METHOD AND ROUTE(S) OF ADMINISTRATION",
                "code" : {
                  "coding" : [{
                    "system" : "https://spor.ema.europa.eu/rmswi/#/lists/200000029659/terms/200000029867",
                    "code" : "200000029867",
                    "display" : "5. METHOD AND ROUTE(S) OF ADMINISTRATION"
                  }]
                },
                "text" : {
                  "status" : "generated",
                  "div" : "<div xmlns=\"http://www.w3.org/1999/xhtml\"/>"
                }
              },
              {
                "id" : "4e87c5c0-25e0-ed11-a7c7-000d3aaa0c5f",
                "title" : "6. SPECIAL WARNING THAT THE MEDICINAL PRODUCT MUST BE STORED OUT OF THE SIGHT AND REACH OF CHILDREN",
                "code" : {
                  "coding" : [{
                    "system" : "https://spor.ema.europa.eu/rmswi/#/lists/200000029659/terms/200000029868",
                    "code" : "200000029868",
                    "display" : "6. SPECIAL WARNING THAT THE MEDICINAL PRODUCT MUST BE STORED OUT OF THE SIGHT AND REACH OF CHILDREN"
                  }]
                },
                "text" : {
                  "status" : "generated",
                  "div" : "<div xmlns=\"http://www.w3.org/1999/xhtml\"/>"
                }
              },
              {
                "id" : "5987c5c0-25e0-ed11-a7c7-000d3aaa0c5f",
                "title" : "7. OTHER SPECIAL WARNING(S), IF NECESSARY",
                "code" : {
                  "coding" : [{
                    "system" : "https://spor.ema.europa.eu/rmswi/#/lists/200000029659/terms/200000029869",
                    "code" : "200000029869",
                    "display" : "7. OTHER SPECIAL WARNING(S), IF NECESSARY"
                  }]
                },
                "text" : {
                  "status" : "generated",
                  "div" : "<div xmlns=\"http://www.w3.org/1999/xhtml\"/>"
                }
              },
              {
                "id" : "6787c5c0-25e0-ed11-a7c7-000d3aaa0c5f",
                "title" : "8. EXPIRY DATE",
                "code" : {
                  "coding" : [{
                    "system" : "https://spor.ema.europa.eu/rmswi/#/lists/200000029659/terms/200000029870",
                    "code" : "200000029870",
                    "display" : "8. EXPIRY DATE"
                  }]
                },
                "text" : {
                  "status" : "generated",
                  "div" : "<div xmlns=\"http://www.w3.org/1999/xhtml\"/>"
                }
              },
              {
                "id" : "6f87c5c0-25e0-ed11-a7c7-000d3aaa0c5f",
                "title" : "9. SPECIAL STORAGE CONDITIONS",
                "code" : {
                  "coding" : [{
                    "system" : "https://spor.ema.europa.eu/rmswi/#/lists/200000029659/terms/200000029871",
                    "code" : "200000029871",
                    "display" : "9. SPECIAL STORAGE CONDITIONS"
                  }]
                },
                "text" : {
                  "status" : "generated",
                  "div" : "<div xmlns=\"http://www.w3.org/1999/xhtml\"/>"
                }
              },
              {
                "id" : "7887c5c0-25e0-ed11-a7c7-000d3aaa0c5f",
                "title" : "10. SPECIAL PRECAUTIONS FOR DISPOSAL OF UNUSED MEDICINAL PRODUCTS OR WASTE MATERIALS DERIVED FROM SUCH MEDICINAL PRODUCTS, IF APPROPRIATE",
                "code" : {
                  "coding" : [{
                    "system" : "https://spor.ema.europa.eu/rmswi/#/lists/200000029659/terms/200000029872",
                    "code" : "200000029872",
                    "display" : "10. SPECIAL PRECAUTIONS FOR DISPOSAL OF UNUSED MEDICINAL PRODUCTS OR WASTE MATERIALS DERIVED FROM SUCH MEDICINAL PRODUCTS, IF APPROPRIATE"
                  }]
                },
                "text" : {
                  "status" : "generated",
                  "div" : "<div xmlns=\"http://www.w3.org/1999/xhtml\"/>"
                }
              },
              {
                "id" : "8487c5c0-25e0-ed11-a7c7-000d3aaa0c5f",
                "title" : "11. NAME AND ADDRESS OF THE MARKETING AUTHORISATION HOLDER",
                "code" : {
                  "coding" : [{
                    "system" : "https://spor.ema.europa.eu/rmswi/#/lists/200000029659/terms/200000029873",
                    "code" : "200000029873",
                    "display" : "11. NAME AND ADDRESS OF THE MARKETING AUTHORISATION HOLDER"
                  }]
                },
                "text" : {
                  "status" : "generated",
                  "div" : "<div xmlns=\"http://www.w3.org/1999/xhtml\"/>"
                }
              },
              {
                "id" : "8887c5c0-25e0-ed11-a7c7-000d3aaa0c5f",
                "title" : "12. MARKETING AUTHORISATION NUMBER(S)",
                "code" : {
                  "coding" : [{
                    "system" : "https://spor.ema.europa.eu/rmswi/#/lists/200000029659/terms/200000029874",
                    "code" : "200000029874",
                    "display" : "12. MARKETING AUTHORISATION NUMBER(S)"
                  }]
                },
                "text" : {
                  "status" : "generated",
                  "div" : "<div xmlns=\"http://www.w3.org/1999/xhtml\"/>"
                }
              },
              {
                "id" : "9a87c5c0-25e0-ed11-a7c7-000d3aaa0c5f",
                "title" : "13. BATCH NUMBER<, DONATION AND PRODUCT CODES>",
                "code" : {
                  "coding" : [{
                    "system" : "https://spor.ema.europa.eu/rmswi/#/lists/200000029659/terms/200000029875",
                    "code" : "200000029875",
                    "display" : "13. BATCH NUMBER<, DONATION AND PRODUCT CODES>"
                  }]
                },
                "text" : {
                  "status" : "generated",
                  "div" : "<div xmlns=\"http://www.w3.org/1999/xhtml\"/>"
                }
              },
              {
                "id" : "a22dc0c6-25e0-ed11-a7c7-000d3aaa0c5f",
                "title" : "14. GENERAL CLASSIFICATION FOR SUPPLY",
                "code" : {
                  "coding" : [{
                    "system" : "https://spor.ema.europa.eu/rmswi/#/lists/200000029659/terms/200000029876",
                    "code" : "200000029876",
                    "display" : "14. GENERAL CLASSIFICATION FOR SUPPLY"
                  }]
                },
                "text" : {
                  "status" : "generated",
                  "div" : "<div xmlns=\"http://www.w3.org/1999/xhtml\"/>"
                }
              },
              {
                "id" : "ac2dc0c6-25e0-ed11-a7c7-000d3aaa0c5f",
                "title" : "15. INSTRUCTIONS ON USE",
                "code" : {
                  "coding" : [{
                    "system" : "https://spor.ema.europa.eu/rmswi/#/lists/200000029659/terms/200000029877",
                    "code" : "200000029877",
                    "display" : "15. INSTRUCTIONS ON USE"
                  }]
                },
                "text" : {
                  "status" : "generated",
                  "div" : "<div xmlns=\"http://www.w3.org/1999/xhtml\"/>"
                }
              },
              {
                "id" : "ba2dc0c6-25e0-ed11-a7c7-000d3aaa0c5f",
                "title" : "16. INFORMATION IN BRAILLE",
                "code" : {
                  "coding" : [{
                    "system" : "https://spor.ema.europa.eu/rmswi/#/lists/200000029659/terms/200000029878",
                    "code" : "200000029878",
                    "display" : "16. INFORMATION IN BRAILLE"
                  }]
                },
                "text" : {
                  "status" : "generated",
                  "div" : "<div xmlns=\"http://www.w3.org/1999/xhtml\"/>"
                }
              },
              {
                "id" : "c12dc0c6-25e0-ed11-a7c7-000d3aaa0c5f",
                "title" : "17. UNIQUE IDENTIFIER - 2D BARCODE",
                "code" : {
                  "coding" : [{
                    "system" : "https://spor.ema.europa.eu/rmswi/#/lists/200000029659/terms/200000029879",
                    "code" : "200000029879",
                    "display" : "17. UNIQUE IDENTIFIER - 2D BARCODE"
                  }]
                },
                "text" : {
                  "status" : "generated",
                  "div" : "<div xmlns=\"http://www.w3.org/1999/xhtml\"/>"
                }
              },
              {
                "id" : "d42dc0c6-25e0-ed11-a7c7-000d3aaa0c5f",
                "title" : "18. UNIQUE IDENTIFIER - HUMAN READABLE DATA",
                "code" : {
                  "coding" : [{
                    "system" : "https://spor.ema.europa.eu/rmswi/#/lists/200000029659/terms/200000029880",
                    "code" : "200000029880",
                    "display" : "18. UNIQUE IDENTIFIER - HUMAN READABLE DATA"
                  }]
                },
                "text" : {
                  "status" : "generated",
                  "div" : "<div xmlns=\"http://www.w3.org/1999/xhtml\"/>"
                }
              }]
            }]
          }]
        }
      }]
    }
  }]
}